audio_file,duration_ms,segment_number,item_id,list_prueba,spl_exp,thisN,thisTrialN,thisRepN,key_prueba.keys,key_prueba.rt,key_prueba.duration,resp_q_2.keys,space_delay.keys,resp_q_2.rt,resp_q_2.duration,space_delay.rt,space_delay.duration,genero,fonologia,list,spa_sniy,que_ykuna,resp_q.keys,space_delay_3.keys,space_delay_3.rt,space_delay_3.duration,resp_q.rt,resp_q.duration,trials_prueba.thisRepN,trials_prueba.thisTrialN,trials_prueba.thisN,trials_prueba.thisIndex,trials.thisRepN,trials.thisTrialN,trials.thisN,trials.thisIndex,thisRow.t,notes,nombre.text,edad.text,genero.text,nacimiento.text,vive.text,mama.text,papa.text,educacion.text,edad_aprender_que.response,edad_aprender_esp.response,edad_comodidad_que.response,edad_comodidad_esp.response,años_clases_que.response,años_clases_esp.response,años_comunidad_que.response,años_comunidad_esp.response,años_familia_que.response,años_familia_esp.response,años_trabajo_que.response,años_trabajo_esp.response,porc_amigos_que.response,porc_amigos_esp.response,porc_amigos_otr.response,porc_familia_que.response,porc_familia_esp.response,porc_familia_otr.response,porc_formal_que.response,porc_formal_esp.response,porc_formal_otr.response,porc_trabajo_que.response,porc_trabajo_esp.response,porc_trabajo_otr.response,porc_mismo_que.response,porc_mismo_esp.response,porc_mismo_otr.response,porc_calculos_que.response,porc_calculos_esp.response,porc_calculos_otr.response,habla_bien_que.response,habla_bien_esp.response,entiende_bien_que.response,entiende_bien_esp.response,lee_bien_que.response,lee_bien_esp.response,escribe_bien_que.response,escribe_bien_esp.response,yo_mismo_que.response,yo_mismo_esp.response,cultura_que.response,cultura_esp.response,uso_nativo_que.response,uso_nativo_esp.response,hablante_nativo_que.response,hablante_nativo_esp.response,trials_prueba.key_prueba.keys,trials_prueba.key_prueba.rt,trials_prueba.key_prueba.duration,resp_key,resp_label,resp_q_rt_ms,trials_prueba.resp_q_2.keys,trials_prueba.space_delay.keys,trials_prueba.resp_q_2.rt,trials_prueba.resp_q_2.duration,trials_prueba.space_delay.rt,trials_prueba.space_delay.duration,spacebar_rt_ms,reaction_time_ms,trials.resp_q.keys,trials.space_delay_3.keys,trials.space_delay_3.rt,trials.space_delay_3.duration,trials.resp_q.rt,trials.resp_q.duration,participant,date,expName,expVersion,psychopyVersion,frameRate,expStart,
,,,,,,,,,,,,,,,,,,,,,,,,,,,,,,,,,,,,,,,,,,,,,,,,,,,,,,,,,,,,,,,,,,,,,,,,,,,,,,,,,,,,,,,,,,,,,,,,,,,,,,,,,,,,,,,,,568041,2025-12-10_14h35.52.224,spl_exp,,2025.1.1,59.4011179287847,2025-12-10 14h36.03.856279 -0700,
,,,,,,,,,,,,,,,,,,,,,,,,,,,,,,,,,,,,,,,a,a,a,a,a,a,a,a,,,,,,,,,,,,,,,,,,,,,,,,,,,,,,,,,,,,,,,,,,,,,,,,,,,,,,,,,,,,,,,,,,,568041,2025-12-10_14h35.52.224,spl_exp,,2025.1.1,59.4011179287847,2025-12-10 14h36.03.856279 -0700,
,,,,,,,,,,,,,,,,,,,,,,,,,,,,,,,,,,,,,,,,,,,,,,,10.0,10.0,7.0,7.0,7.0,7.0,,,,,,,,,,,,,,,,,,,,,,,,,,,,,,,,,,,,,,,,,,,,,,,,,,,,,,,,,,,,,568041,2025-12-10_14h35.52.224,spl_exp,,2025.1.1,59.4011179287847,2025-12-10 14h36.03.856279 -0700,
,,,,,,,,,,,,,,,,,,,,,,,,,,,,,,,,,,,,,,,,,,,,,,,,,,,,,11.0,11.0,9.0,9.0,9.0,9.0,,,,,,,,,,,,,,,,,,,,,,,,,,,,,,,,,,,,,,,,,,,,,,,,,,,,,,,568041,2025-12-10_14h35.52.224,spl_exp,,2025.1.1,59.4011179287847,2025-12-10 14h36.03.856279 -0700,
,,,,,,,,,,,,,,,,,,,,,,,,,,,,,,,,,,,,,,,,,,,,,,,,,,,,,,,,,,,60%,60%,50%,50%,50%,50%,,,,,,,,,,,,,,,,,,,,,,,,,,,,,,,,,,,,,,,,,,,,,,,,,568041,2025-12-10_14h35.52.224,spl_exp,,2025.1.1,59.4011179287847,2025-12-10 14h36.03.856279 -0700,
,,,,,,,,,,,,,,,,,,,,,,,,,,,,,,,,,,,,,,,,,,,,,,,,,,,,,,,,,,,,,,,,,60%,60%,50%,50%,50%,50%,,,,,,,,,,,,,,,,,,,,,,,,,,,,,,,,,,,,,,,,,,,568041,2025-12-10_14h35.52.224,spl_exp,,2025.1.1,59.4011179287847,2025-12-10 14h36.03.856279 -0700,
,,,,,,,,,,,,,,,,,,,,,,,,,,,,,,,,,,,,,,,,,,,,,,,,,,,,,,,,,,,,,,,,,,,,,,,60%,60%,50%,50%,50%,50%,,,,,,,,,,,,,,,,,,,,,,,,,,,,,,,,,,,,,568041,2025-12-10_14h35.52.224,spl_exp,,2025.1.1,59.4011179287847,2025-12-10 14h36.03.856279 -0700,
,,,,,,,,,,,,,,,,,,,,,,,,,,,,,,,,,,,,,,,,,,,,,,,,,,,,,,,,,,,,,,,,,,,,,,,,,,,,,5.0,5.0,5.0,5.0,5.0,5.0,5.0,5.0,,,,,,,,,,,,,,,,,,,,,,,,,,,,,568041,2025-12-10_14h35.52.224,spl_exp,,2025.1.1,59.4011179287847,2025-12-10 14h36.03.856279 -0700,
,,,,,,,,,,,,,,,,,,,,,,,,,,,,,,,,,,,,,,,,,,,,,,,,,,,,,,,,,,,,,,,,,,,,,,,,,,,,,,,,,,,,,5.0,5.0,5.0,5.0,5.0,5.0,5.0,5.0,,,,,,,,,,,,,,,,,,,,,568041,2025-12-10_14h35.52.224,spl_exp,,2025.1.1,59.4011179287847,2025-12-10 14h36.03.856279 -0700,
,,,,,,,,,,,,,,,,,,,,,,,,space,1.621329899999182,None,,,,,,,,,,,,,,,,,,,,,,,,,,,,,,,,,,,,,,,,,,,,,,,,,,,,,,,,,,,,,,,,,,,,,,,,,,,,,,,,,,,,,,,568041,2025-12-10_14h35.52.224,spl_exp,,2025.1.1,59.4011179287847,2025-12-10 14h36.03.856279 -0700,
,,,,,,,,,,,,,,,,,,,,,,,,,,,,,,,,,,,,,,,,,,,,,,,,,,,,,,,,,,,,,,,,,,,,,,,,,,,,,,,,,,,,,,,,,,,,,,,,,,,,,,,,,,,,,,,,,568041,2025-12-10_14h35.52.224,spl_exp,,2025.1.1,59.4011179287847,2025-12-10 14h36.03.856279 -0700,
prue1_seg1.wav,3897.21,1,item_prue1,1,prueba,0,0,0,space,7.84377620000123,None,None,None,,,,,,,,,,,,,,,,0,0,0,0,,,,,113.9101096000013,,,,,,,,,,,,,,,,,,,,,,,,,,,,,,,,,,,,,,,,,,,,,,,,,,,,,,,,space,7.84377620000123,None,[],Sin respuesta,[],None,None,,,,,,,,,,,,,568041,2025-12-10_14h35.52.224,spl_exp,,2025.1.1,59.4011179287847,2025-12-10 14h36.03.856279 -0700,
prue1_seg2.wav,1425.87,2,item_prue1,1,prueba,1,1,0,space,0.567345600000408,None,None,None,,,,,,,,,,,,,,,,0,1,1,1,,,,,117.80981410000095,,,,,,,,,,,,,,,,,,,,,,,,,,,,,,,,,,,,,,,,,,,,,,,,,,,,,,,,space,0.567345600000408,None,[],Sin respuesta,[],None,None,,,,,,,,,,,,,568041,2025-12-10_14h35.52.224,spl_exp,,2025.1.1,59.4011179287847,2025-12-10 14h36.03.856279 -0700,
prue1_seg3.wav,1694.81,3,item_prue1,1,prueba,2,2,0,space,0.13989149999906658,None,None,None,,,,,,,,,,,,,,,,0,2,2,2,,,,,119.84268330000123,,,,,,,,,,,,,,,,,,,,,,,,,,,,,,,,,,,,,,,,,,,,,,,,,,,,,,,,space,0.13989149999906658,None,[],Sin respuesta,[],None,None,,,,,,,,,,,,,568041,2025-12-10_14h35.52.224,spl_exp,,2025.1.1,59.4011179287847,2025-12-10 14h36.03.856279 -0700,
prue1_seg4.wav,1432.13,4,item_prue1,1,prueba,3,3,0,space,0.321111799999926,None,None,None,,,,,,,,,,,,,,,,0,3,3,3,,,,,121.69270790000155,,,,,,,,,,,,,,,,,,,,,,,,,,,,,,,,,,,,,,,,,,,,,,,,,,,,,,,,space,0.321111799999926,None,[],Sin respuesta,[],None,None,,,,,,,,,,,,,568041,2025-12-10_14h35.52.224,spl_exp,,2025.1.1,59.4011179287847,2025-12-10 14h36.03.856279 -0700,
prue1_seg5.wav,1419.64,5,item_prue1,1,prueba,4,4,0,space,1.642361100000926,None,None,None,,,,,,,,,,,,,,,,0,4,4,4,,,,,123.47625900000094,,,,,,,,,,,,,,,,,,,,,,,,,,,,,,,,,,,,,,,,,,,,,,,,,,,,,,,,space,1.642361100000926,None,[],Sin respuesta,[],None,None,,,,,,,,,,,,,568041,2025-12-10_14h35.52.224,spl_exp,,2025.1.1,59.4011179287847,2025-12-10 14h36.03.856279 -0700,
prue1_seg6.wav,1447.03,6,item_prue1,1,prueba,5,5,0,space,1.2914304999994783,None,None,None,,,,,,,,,,,,,,,,0,5,5,5,,,,,124.92658370000026,,,,,,,,,,,,,,,,,,,,,,,,,,,,,,,,,,,,,,,,,,,,,,,,,,,,,,,,space,1.2914304999994783,None,[],Sin respuesta,[],None,None,,,,,,,,,,,,,568041,2025-12-10_14h35.52.224,spl_exp,,2025.1.1,59.4011179287847,2025-12-10 14h36.03.856279 -0700,
prue1_seg7.wav,3764.81,7,item_prue1,1,prueba,6,6,0,None,,,f,space,0.1472816999994393,None,1.0424668000014208,None,,,,,,,,,,,,0,6,6,6,,,,,126.44297240000014,,,,,,,,,,,,,,,,,,,,,,,,,,,,,,,,,,,,,,,,,,,,,,,,,,,,,,,,None,,,[],Sin respuesta,[],f,space,0.1472816999994393,None,1.0424668000014208,None,,,,,,,,,568041,2025-12-10_14h35.52.224,spl_exp,,2025.1.1,59.4011179287847,2025-12-10 14h36.03.856279 -0700,
prue2_seg1.wav,4485.85,1,item_prue2,1,prueba,7,7,0,space,5.317485800000213,None,None,None,,,,,,,,,,,,,,,,0,7,7,7,,,,,131.44324250000136,,,,,,,,,,,,,,,,,,,,,,,,,,,,,,,,,,,,,,,,,,,,,,,,,,,,,,,,space,5.317485800000213,None,[],Sin respuesta,[],None,None,,,,,,,,,,,,,568041,2025-12-10_14h35.52.224,spl_exp,,2025.1.1,59.4011179287847,2025-12-10 14h36.03.856279 -0700,
prue2_seg2.wav,1790.79,2,item_prue2,1,prueba,8,8,0,space,1.8140906999997242,None,None,None,,,,,,,,,,,,,,,,0,8,8,8,,,,,135.94311010000092,,,,,,,,,,,,,,,,,,,,,,,,,,,,,,,,,,,,,,,,,,,,,,,,,,,,,,,,space,1.8140906999997242,None,[],Sin respuesta,[],None,None,,,,,,,,,,,,,568041,2025-12-10_14h35.52.224,spl_exp,,2025.1.1,59.4011179287847,2025-12-10 14h36.03.856279 -0700,
prue2_seg3.wav,1313.31,3,item_prue2,1,prueba,9,9,0,space,0.031904800000120304,None,None,None,,,,,,,,,,,,,,,,0,9,9,9,,,,,137.75899280000158,,,,,,,,,,,,,,,,,,,,,,,,,,,,,,,,,,,,,,,,,,,,,,,,,,,,,,,,space,0.031904800000120304,None,[],Sin respuesta,[],None,None,,,,,,,,,,,,,568041,2025-12-10_14h35.52.224,spl_exp,,2025.1.1,59.4011179287847,2025-12-10 14h36.03.856279 -0700,
prue2_seg4.wav,1626.01,4,item_prue2,1,prueba,10,10,0,space,1.468532500000947,None,None,None,,,,,,,,,,,,,,,,0,10,10,10,,,,,139.10924580000028,,,,,,,,,,,,,,,,,,,,,,,,,,,,,,,,,,,,,,,,,,,,,,,,,,,,,,,,space,1.468532500000947,None,[],Sin respuesta,[],None,None,,,,,,,,,,,,,568041,2025-12-10_14h35.52.224,spl_exp,,2025.1.1,59.4011179287847,2025-12-10 14h36.03.856279 -0700,
prue2_seg5.wav,1069.41,5,item_prue2,1,prueba,11,11,0,space,0.22866359999898123,None,None,None,,,,,,,,,,,,,,,,0,11,11,11,,,,,140.75967140000103,,,,,,,,,,,,,,,,,,,,,,,,,,,,,,,,,,,,,,,,,,,,,,,,,,,,,,,,space,0.22866359999898123,None,[],Sin respuesta,[],None,None,,,,,,,,,,,,,568041,2025-12-10_14h35.52.224,spl_exp,,2025.1.1,59.4011179287847,2025-12-10 14h36.03.856279 -0700,
prue2_seg6.wav,1225.76,6,item_prue2,1,prueba,12,12,0,space,1.4341064000000188,None,None,None,,,,,,,,,,,,,,,,0,12,12,12,,,,,142.10965140000008,,,,,,,,,,,,,,,,,,,,,,,,,,,,,,,,,,,,,,,,,,,,,,,,,,,,,,,,space,1.4341064000000188,None,[],Sin respuesta,[],None,None,,,,,,,,,,,,,568041,2025-12-10_14h35.52.224,spl_exp,,2025.1.1,59.4011179287847,2025-12-10 14h36.03.856279 -0700,
prue2_seg7.wav,2570.34,7,item_prue2,1,prueba,13,13,0,None,,,f,space,0.8373570000003383,None,0.4342703000002075,None,,,,,,,,,,,,0,13,13,13,,,,,143.3923209000004,,,,,,,,,,,,,,,,,,,,,,,,,,,,,,,,,,,,,,,,,,,,,,,,,,,,,,,,None,,,[],Sin respuesta,[],f,space,0.8373570000003383,None,0.4342703000002075,None,,,,,,,,,568041,2025-12-10_14h35.52.224,spl_exp,,2025.1.1,59.4011179287847,2025-12-10 14h36.03.856279 -0700,
prue3_seg1.wav,4815.46,1,item_prue3,1,prueba,14,14,0,space,0.7057875999998942,None,None,None,,,,,,,,,,,,,,,,0,14,14,14,,,,,147.30946790000053,,,,,,,,,,,,,,,,,,,,,,,,,,,,,,,,,,,,,,,,,,,,,,,,,,,,,,,,space,0.7057875999998942,None,[],Sin respuesta,[],None,None,,,,,,,,,,,,,568041,2025-12-10_14h35.52.224,spl_exp,,2025.1.1,59.4011179287847,2025-12-10 14h36.03.856279 -0700,
prue3_seg2.wav,587.82,2,item_prue3,1,prueba,15,15,0,space,0.6793046000002505,None,None,None,,,,,,,,,,,,,,,,0,15,15,15,,,,,152.82564000000093,,,,,,,,,,,,,,,,,,,,,,,,,,,,,,,,,,,,,,,,,,,,,,,,,,,,,,,,space,0.6793046000002505,None,[],Sin respuesta,[],None,None,,,,,,,,,,,,,568041,2025-12-10_14h35.52.224,spl_exp,,2025.1.1,59.4011179287847,2025-12-10 14h36.03.856279 -0700,
prue3_seg3.wav,1056.1,3,item_prue3,1,prueba,16,16,0,space,0.13680260000001,None,None,None,,,,,,,,,,,,,,,,0,16,16,16,,,,,154.14295090000087,,,,,,,,,,,,,,,,,,,,,,,,,,,,,,,,,,,,,,,,,,,,,,,,,,,,,,,,space,0.13680260000001,None,[],Sin respuesta,[],None,None,,,,,,,,,,,,,568041,2025-12-10_14h35.52.224,spl_exp,,2025.1.1,59.4011179287847,2025-12-10 14h36.03.856279 -0700,
prue3_seg4.wav,1569.73,4,item_prue3,1,prueba,17,17,0,space,1.671269200000097,None,None,None,,,,,,,,,,,,,,,,0,17,17,17,,,,,155.35922890000074,,,,,,,,,,,,,,,,,,,,,,,,,,,,,,,,,,,,,,,,,,,,,,,,,,,,,,,,space,1.671269200000097,None,[],Sin respuesta,[],None,None,,,,,,,,,,,,,568041,2025-12-10_14h35.52.224,spl_exp,,2025.1.1,59.4011179287847,2025-12-10 14h36.03.856279 -0700,
prue3_seg5.wav,1782.36,5,item_prue3,1,prueba,18,18,0,space,1.7527917999996134,None,None,None,,,,,,,,,,,,,,,,0,18,18,18,,,,,156.95937830000003,,,,,,,,,,,,,,,,,,,,,,,,,,,,,,,,,,,,,,,,,,,,,,,,,,,,,,,,space,1.7527917999996134,None,[],Sin respuesta,[],None,None,,,,,,,,,,,,,568041,2025-12-10_14h35.52.224,spl_exp,,2025.1.1,59.4011179287847,2025-12-10 14h36.03.856279 -0700,
prue3_seg6.wav,1525.15,6,item_prue3,1,prueba,19,19,0,space,1.4918506000012712,None,None,None,,,,,,,,,,,,,,,,0,19,19,19,,,,,158.75922470000114,,,,,,,,,,,,,,,,,,,,,,,,,,,,,,,,,,,,,,,,,,,,,,,,,,,,,,,,space,1.4918506000012712,None,[],Sin respuesta,[],None,None,,,,,,,,,,,,,568041,2025-12-10_14h35.52.224,spl_exp,,2025.1.1,59.4011179287847,2025-12-10 14h36.03.856279 -0700,
prue3_seg7.wav,2582.86,7,item_prue3,1,prueba,20,20,0,None,,,f,space,0.058574299999236246,None,0.49821259999953327,None,,,,,,,,,,,,0,20,20,20,,,,,160.32595840000067,,,,,,,,,,,,,,,,,,,,,,,,,,,,,,,,,,,,,,,,,,,,,,,,,,,,,,,,None,,,[],Sin respuesta,[],f,space,0.058574299999236246,None,0.49821259999953327,None,,,,,,,,,568041,2025-12-10_14h35.52.224,spl_exp,,2025.1.1,59.4011179287847,2025-12-10 14h36.03.856279 -0700,
,,,,,,,,,,,,,,,,,,,,,,,,,,,,,,,,,,,,,,,,,,,,,,,,,,,,,,,,,,,,,,,,,,,,,,,,,,,,,,,,,,,,,,,,,,,,,,,,,,,,,,,,,,,,,,,,,568041,2025-12-10_14h35.52.224,spl_exp,,2025.1.1,59.4011179287847,2025-12-10 14h36.03.856279 -0700,
d_24b_seg1.wav,5911.25,1,item_48d,,dim,0,0,0,,,,,,,,,,1.0,0.0,1,None,None,None,space,7.221259399999326,None,,,,,,,0,0,0,0,172.55827820000013,,,,,,,,,,,,,,,,,,,,,,,,,,,,,,,,,,,,,,,,,,,,,,,,,,,,,,,,,,,[],Sin respuesta,[],,,,,,,6167.303399999582,256.0533999995823,None,space,7.221259399999326,None,,,568041,2025-12-10_14h35.52.224,spl_exp,,2025.1.1,59.4011179287847,2025-12-10 14h36.03.856279 -0700,
d_24b_seg2.wav,983.38,2,item_48d,,dim,1,1,0,,,,,,,,,,1.0,0.0,1,None,None,None,space,1.0538111999994726,None,,,,,,,0,1,1,1,178.77501190000112,,,,,,,,,,,,,,,,,,,,,,,,,,,,,,,,,,,,,,,,,,,,,,,,,,,,,,,,,,,[],Sin respuesta,[],,,,,,,1044.1107000006014,60.73070000060136,None,space,1.0538111999994726,None,,,568041,2025-12-10_14h35.52.224,spl_exp,,2025.1.1,59.4011179287847,2025-12-10 14h36.03.856279 -0700,
d_24b_seg3.wav,620.39,3,item_48d,,dim,2,2,0,,,,,,,,,,1.0,0.0,1,None,None,None,space,0.8303096999989066,None,,,,,,,0,2,2,2,179.8256934000001,,,,,,,,,,,,,,,,,,,,,,,,,,,,,,,,,,,,,,,,,,,,,,,,,,,,,,,,,,,[],Sin respuesta,[],,,,,,,838.3075000001554,217.91750000015543,None,space,0.8303096999989066,None,,,568041,2025-12-10_14h35.52.224,spl_exp,,2025.1.1,59.4011179287847,2025-12-10 14h36.03.856279 -0700,
d_24b_seg4.wav,1110.52,4,item_48d,,dim,3,3,0,,,,,,,,,,1.0,0.0,1,None,None,None,space,2.080878800001301,None,,,,,,,0,3,3,3,180.6916068999999,,,,,,,,,,,,,,,,,,,,,,,,,,,,,,,,,,,,,,,,,,,,,,,,,,,,,,,,,,,[],Sin respuesta,[],,,,,,,2080.213500001264,969.693500001264,None,space,2.080878800001301,None,,,568041,2025-12-10_14h35.52.224,spl_exp,,2025.1.1,59.4011179287847,2025-12-10 14h36.03.856279 -0700,
d_24b_seg5.wav,632.81,5,item_48d,,dim,4,4,0,,,,,,,,,,1.0,0.0,1,None,None,None,space,1.7155177999993612,None,,,,,,,0,4,4,4,182.77560129999983,,,,,,,,,,,,,,,,,,,,,,,,,,,,,,,,,,,,,,,,,,,,,,,,,,,,,,,,,,,[],Sin respuesta,[],,,,,,,1722.0799999995506,1089.2699999995507,None,space,1.7155177999993612,None,,,568041,2025-12-10_14h35.52.224,spl_exp,,2025.1.1,59.4011179287847,2025-12-10 14h36.03.856279 -0700,
d_24b_seg6.wav,769.3,6,item_48d,,dim,5,5,0,,,,,,,,,,1.0,0.0,1,None,None,None,space,1.4902626999992208,None,,,,,,,0,5,5,5,184.52466350000032,,,,,,,,,,,,,,,,,,,,,,,,,,,,,,,,,,,,,,,,,,,,,,,,,,,,,,,,,,,[],Sin respuesta,[],,,,,,,1481.7495999996027,712.4495999996027,None,space,1.4902626999992208,None,,,568041,2025-12-10_14h35.52.224,spl_exp,,2025.1.1,59.4011179287847,2025-12-10 14h36.03.856279 -0700,
d_24b_seg7.wav,1259.41,7,item_48d,,dim,6,6,0,,,,,,,,,,1.0,0.0,1,None,None,None,space,1.871855699999287,None,,,,,,,0,6,6,6,186.02450500000123,,,,,,,,,,,,,,,,,,,,,,,,,,,,,,,,,,,,,,,,,,,,,,,,,,,,,,,,,,,[],Sin respuesta,[],,,,,,,1870.0380000009318,610.6280000009317,None,space,1.871855699999287,None,,,568041,2025-12-10_14h35.52.224,spl_exp,,2025.1.1,59.4011179287847,2025-12-10 14h36.03.856279 -0700,
d_24b_seg8.wav,3152.52,8,item_48d,,dim,7,7,0,,,,,,,,,,1.0,0.0,1,None,None,f,space,0.32947779999994964,None,3.0809941999996227,None,,,,,0,7,7,7,187.9250245000003,,,,,,,,,,,,,,,,,,,,,,,,,,,,,,,,,,,,,,,,,,,,,,,,,,,,,,,,,,,f,Sí,3080.9941999996227,,,,,,,,,f,space,0.32947779999994964,None,3.0809941999996227,None,568041,2025-12-10_14h35.52.224,spl_exp,,2025.1.1,59.4011179287847,2025-12-10 14h36.03.856279 -0700,
p_7a_seg1.wav,5638.21,1,item_13p,,plu,8,8,0,,,,,,,,,,None,None,1,1.0,0.0,None,space,6.729397199998857,None,,,,,,,0,8,8,8,191.47483770000144,,,,,,,,,,,,,,,,,,,,,,,,,,,,,,,,,,,,,,,,,,,,,,,,,,,,,,,,,,,[],Sin respuesta,[],,,,,,,6350.067299999864,711.8572999998642,None,space,6.729397199998857,None,,,568041,2025-12-10_14h35.52.224,spl_exp,,2025.1.1,59.4011179287847,2025-12-10 14h36.03.856279 -0700,
p_7a_seg2.wav,1047.35,2,item_13p,,plu,9,9,0,,,,,,,,,,None,None,1,1.0,0.0,None,space,1.1352086999995663,None,,,,,,,0,9,9,9,197.8751521000013,,,,,,,,,,,,,,,,,,,,,,,,,,,,,,,,,,,,,,,,,,,,,,,,,,,,,,,,,,,[],Sin respuesta,[],,,,,,,1118.1156000002375,70.76560000023755,None,space,1.1352086999995663,None,,,568041,2025-12-10_14h35.52.224,spl_exp,,2025.1.1,59.4011179287847,2025-12-10 14h36.03.856279 -0700,
p_7a_seg3.wav,1171.7,3,item_13p,,plu,10,10,0,,,,,,,,,,None,None,1,1.0,0.0,None,space,1.7562511000014638,None,,,,,,,0,10,10,10,199.00784209999983,,,,,,,,,,,,,,,,,,,,,,,,,,,,,,,,,,,,,,,,,,,,,,,,,,,,,,,,,,,[],Sin respuesta,[],,,,,,,1756.3663000000815,584.6663000000815,None,space,1.7562511000014638,None,,,568041,2025-12-10_14h35.52.224,spl_exp,,2025.1.1,59.4011179287847,2025-12-10 14h36.03.856279 -0700,
p_7a_seg4.wav,1302.63,4,item_13p,,plu,11,11,0,,,,,,,,,,None,None,1,1.0,0.0,None,space,1.5521778999991511,None,,,,,,,0,11,11,11,200.79157180000038,,,,,,,,,,,,,,,,,,,,,,,,,,,,,,,,,,,,,,,,,,,,,,,,,,,,,,,,,,,[],Sin respuesta,[],,,,,,,1541.6200999989087,238.9900999989086,None,space,1.5521778999991511,None,,,568041,2025-12-10_14h35.52.224,spl_exp,,2025.1.1,59.4011179287847,2025-12-10 14h36.03.856279 -0700,
p_7a_seg5.wav,890.23,5,item_13p,,plu,12,12,0,,,,,,,,,,None,None,1,1.0,0.0,None,space,1.1758991000006063,None,,,,,,,0,12,12,12,202.3577561000002,,,,,,,,,,,,,,,,,,,,,,,,,,,,,,,,,,,,,,,,,,,,,,,,,,,,,,,,,,,[],Sin respuesta,[],,,,,,,1173.1944999992265,282.9644999992265,None,space,1.1758991000006063,None,,,568041,2025-12-10_14h35.52.224,spl_exp,,2025.1.1,59.4011179287847,2025-12-10 14h36.03.856279 -0700,
p_7a_seg6.wav,1341.88,6,item_13p,,plu,13,13,0,,,,,,,,,,None,None,1,1.0,0.0,None,space,1.3720040999996854,None,,,,,,,0,13,13,13,203.54193339999983,,,,,,,,,,,,,,,,,,,,,,,,,,,,,,,,,,,,,,,,,,,,,,,,,,,,,,,,,,,[],Sin respuesta,[],,,,,,,1371.606000000611,29.72600000061084,None,space,1.3720040999996854,None,,,568041,2025-12-10_14h35.52.224,spl_exp,,2025.1.1,59.4011179287847,2025-12-10 14h36.03.856279 -0700,
p_7a_seg7.wav,2048.84,7,item_13p,,plu,14,14,0,,,,,,,,,,None,None,1,1.0,0.0,None,space,2.4312583999999333,None,,,,,,,0,14,14,14,204.94107700000131,,,,,,,,,,,,,,,,,,,,,,,,,,,,,,,,,,,,,,,,,,,,,,,,,,,,,,,,,,,[],Sin respuesta,[],,,,,,,2429.2420000001584,380.4020000001583,None,space,2.4312583999999333,None,,,568041,2025-12-10_14h35.52.224,spl_exp,,2025.1.1,59.4011179287847,2025-12-10 14h36.03.856279 -0700,
p_7a_seg8.wav,2739.98,8,item_13p,,plu,15,15,0,,,,,,,,,,None,None,1,1.0,0.0,f,space,0.8393601000007038,None,2.9779952999997477,None,,,,,0,15,15,15,207.424243200001,,,,,,,,,,,,,,,,,,,,,,,,,,,,,,,,,,,,,,,,,,,,,,,,,,,,,,,,,,,f,Sí,2977.9952999997477,,,,,,,,,f,space,0.8393601000007038,None,2.9779952999997477,None,568041,2025-12-10_14h35.52.224,spl_exp,,2025.1.1,59.4011179287847,2025-12-10 14h36.03.856279 -0700,
d_20b_seg1.wav,5821.07,1,item_40d,,dim,16,16,0,,,,,,,,,,1.0,0.0,1,None,None,None,space,6.983660500000042,None,,,,,,,0,16,16,16,214.05796370000098,,,,,,,,,,,,,,,,,,,,,,,,,,,,,,,,,,,,,,,,,,,,,,,,,,,,,,,,,,,[],Sin respuesta,[],,,,,,,6101.4987000016845,280.4287000016848,None,space,6.983660500000042,None,,,568041,2025-12-10_14h35.52.224,spl_exp,,2025.1.1,59.4011179287847,2025-12-10 14h36.03.856279 -0700,
d_20b_seg2.wav,989.64,2,item_40d,,dim,17,17,0,,,,,,,,,,1.0,0.0,1,None,None,None,space,1.496032600000035,None,,,,,,,0,17,17,17,220.20710210000107,,,,,,,,,,,,,,,,,,,,,,,,,,,,,,,,,,,,,,,,,,,,,,,,,,,,,,,,,,,[],Sin respuesta,[],,,,,,,1495.2389999998559,505.5989999998559,None,space,1.496032600000035,None,,,568041,2025-12-10_14h35.52.224,spl_exp,,2025.1.1,59.4011179287847,2025-12-10 14h36.03.856279 -0700,
d_20b_seg3.wav,770.32,3,item_40d,,dim,18,18,0,,,,,,,,,,1.0,0.0,1,None,None,None,space,1.0650803999997152,None,,,,,,,0,18,18,18,221.72395219999999,,,,,,,,,,,,,,,,,,,,,,,,,,,,,,,,,,,,,,,,,,,,,,,,,,,,,,,,,,,[],Sin respuesta,[],,,,,,,1070.025799999712,299.705799999712,None,space,1.0650803999997152,None,,,568041,2025-12-10_14h35.52.224,spl_exp,,2025.1.1,59.4011179287847,2025-12-10 14h36.03.856279 -0700,
d_20b_seg4.wav,920.09,4,item_40d,,dim,19,19,0,,,,,,,,,,1.0,0.0,1,None,None,None,space,1.3135517000009713,None,,,,,,,0,19,19,19,222.80723820000094,,,,,,,,,,,,,,,,,,,,,,,,,,,,,,,,,,,,,,,,,,,,,,,,,,,,,,,,,,,[],Sin respuesta,[],,,,,,,1317.4412999997003,397.35129999970025,None,space,1.3135517000009713,None,,,568041,2025-12-10_14h35.52.224,spl_exp,,2025.1.1,59.4011179287847,2025-12-10 14h36.03.856279 -0700,
d_20b_seg5.wav,732.88,5,item_40d,,dim,20,20,0,,,,,,,,,,1.0,0.0,1,None,None,None,space,0.9320023000000219,None,,,,,,,0,20,20,20,224.1254628000006,,,,,,,,,,,,,,,,,,,,,,,,,,,,,,,,,,,,,,,,,,,,,,,,,,,,,,,,,,,[],Sin respuesta,[],,,,,,,940.6082999994396,207.72829999943963,None,space,0.9320023000000219,None,,,568041,2025-12-10_14h35.52.224,spl_exp,,2025.1.1,59.4011179287847,2025-12-10 14h36.03.856279 -0700,
d_20b_seg6.wav,877.3,6,item_40d,,dim,21,21,0,,,,,,,,,,1.0,0.0,1,None,None,None,space,1.077583300000697,None,,,,,,,0,21,21,21,225.09043999999994,,,,,,,,,,,,,,,,,,,,,,,,,,,,,,,,,,,,,,,,,,,,,,,,,,,,,,,,,,,[],Sin respuesta,[],,,,,,,1081.3477000010607,204.04770000106078,None,space,1.077583300000697,None,,,568041,2025-12-10_14h35.52.224,spl_exp,,2025.1.1,59.4011179287847,2025-12-10 14h36.03.856279 -0700,
d_20b_seg7.wav,1337.37,7,item_40d,,dim,22,22,0,,,,,,,,,,1.0,0.0,1,None,None,None,space,1.8373069999997824,None,,,,,,,0,22,22,22,226.1902882000013,,,,,,,,,,,,,,,,,,,,,,,,,,,,,,,,,,,,,,,,,,,,,,,,,,,,,,,,,,,[],Sin respuesta,[],,,,,,,1827.3690000005445,489.9990000005446,None,space,1.8373069999997824,None,,,568041,2025-12-10_14h35.52.224,spl_exp,,2025.1.1,59.4011179287847,2025-12-10 14h36.03.856279 -0700,
d_20b_seg8.wav,2058.25,8,item_40d,,dim,23,23,0,,,,,,,,,,1.0,0.0,1,None,None,j,space,0.7188978000012867,None,0.6948450999989291,None,,,,,0,23,23,23,228.0739248000009,,,,,,,,,,,,,,,,,,,,,,,,,,,,,,,,,,,,,,,,,,,,,,,,,,,,,,,,,,,j,No,694.8450999989291,,,,,,,,,j,space,0.7188978000012867,None,0.6948450999989291,None,568041,2025-12-10_14h35.52.224,spl_exp,,2025.1.1,59.4011179287847,2025-12-10 14h36.03.856279 -0700,
p_3a_seg1.wav,5343.85,1,item_5p,,plu,24,24,0,,,,,,,,,,None,None,1,1.0,0.0,None,space,6.174926900001083,None,,,,,,,0,24,24,24,231.573851000001,,,,,,,,,,,,,,,,,,,,,,,,,,,,,,,,,,,,,,,,,,,,,,,,,,,,,,,,,,,[],Sin respuesta,[],,,,,,,5424.54810000163,80.69810000162943,None,space,6.174926900001083,None,,,568041,2025-12-10_14h35.52.224,spl_exp,,2025.1.1,59.4011179287847,2025-12-10 14h36.03.856279 -0700,
p_3a_seg2.wav,1287.98,2,item_5p,,plu,25,25,0,,,,,,,,,,None,None,1,1.0,0.0,None,space,1.9939412000003358,None,,,,,,,0,25,25,25,237.04007510000156,,,,,,,,,,,,,,,,,,,,,,,,,,,,,,,,,,,,,,,,,,,,,,,,,,,,,,,,,,,[],Sin respuesta,[],,,,,,,1975.8892000008927,687.9092000008927,None,space,1.9939412000003358,None,,,568041,2025-12-10_14h35.52.224,spl_exp,,2025.1.1,59.4011179287847,2025-12-10 14h36.03.856279 -0700,
p_3a_seg3.wav,1081.36,3,item_5p,,plu,26,26,0,,,,,,,,,,None,None,1,1.0,0.0,None,space,1.6464369999994233,None,,,,,,,0,26,26,26,239.03984930000115,,,,,,,,,,,,,,,,,,,,,,,,,,,,,,,,,,,,,,,,,,,,,,,,,,,,,,,,,,,[],Sin respuesta,[],,,,,,,1643.550900000264,562.190900000264,None,space,1.6464369999994233,None,,,568041,2025-12-10_14h35.52.224,spl_exp,,2025.1.1,59.4011179287847,2025-12-10 14h36.03.856279 -0700,
p_3a_seg4.wav,1336.21,4,item_5p,,plu,27,27,0,,,,,,,,,,None,None,1,1.0,0.0,None,space,1.443685899999764,None,,,,,,,0,27,27,27,240.72419790000095,,,,,,,,,,,,,,,,,,,,,,,,,,,,,,,,,,,,,,,,,,,,,,,,,,,,,,,,,,,[],Sin respuesta,[],,,,,,,1437.6833000005718,101.47330000057173,None,space,1.443685899999764,None,,,568041,2025-12-10_14h35.52.224,spl_exp,,2025.1.1,59.4011179287847,2025-12-10 14h36.03.856279 -0700,
p_3a_seg5.wav,971.16,5,item_5p,,plu,28,28,0,,,,,,,,,,None,None,1,1.0,0.0,None,space,1.05464960000063,None,,,,,,,0,28,28,28,242.17422280000028,,,,,,,,,,,,,,,,,,,,,,,,,,,,,,,,,,,,,,,,,,,,,,,,,,,,,,,,,,,[],Sin respuesta,[],,,,,,,1045.4088000005868,74.24880000058681,None,space,1.05464960000063,None,,,568041,2025-12-10_14h35.52.224,spl_exp,,2025.1.1,59.4011179287847,2025-12-10 14h36.03.856279 -0700,
p_3a_seg6.wav,1191.54,6,item_5p,,plu,29,29,0,,,,,,,,,,None,None,1,1.0,0.0,None,space,1.495661499999187,None,,,,,,,0,29,29,29,243.2400746000003,,,,,,,,,,,,,,,,,,,,,,,,,,,,,,,,,,,,,,,,,,,,,,,,,,,,,,,,,,,[],Sin respuesta,[],,,,,,,1495.0484999990294,303.5084999990295,None,space,1.495661499999187,None,,,568041,2025-12-10_14h35.52.224,spl_exp,,2025.1.1,59.4011179287847,2025-12-10 14h36.03.856279 -0700,
p_3a_seg7.wav,1873.42,7,item_5p,,plu,30,30,0,,,,,,,,,,None,None,1,1.0,0.0,None,space,2.0366383000000496,None,,,,,,,0,30,30,30,244.77326859999994,,,,,,,,,,,,,,,,,,,,,,,,,,,,,,,,,,,,,,,,,,,,,,,,,,,,,,,,,,,[],Sin respuesta,[],,,,,,,2010.4093000009016,136.9893000009015,None,space,2.0366383000000496,None,,,568041,2025-12-10_14h35.52.224,spl_exp,,2025.1.1,59.4011179287847,2025-12-10 14h36.03.856279 -0700,
p_3a_seg8.wav,2658.62,8,item_5p,,plu,31,31,0,,,,,,,,,,None,None,1,1.0,0.0,f,space,0.34889300000031653,None,2.6439384000004793,None,,,,,0,31,31,31,246.9068767000008,,,,,,,,,,,,,,,,,,,,,,,,,,,,,,,,,,,,,,,,,,,,,,,,,,,,,,,,,,,f,Sí,2643.9384000004793,,,,,,,,,f,space,0.34889300000031653,None,2.6439384000004793,None,568041,2025-12-10_14h35.52.224,spl_exp,,2025.1.1,59.4011179287847,2025-12-10 14h36.03.856279 -0700,
d_2b_seg1.wav,4860.23,1,item_4d,,dim,32,32,0,,,,,,,,,,0.0,1.0,1,None,None,None,space,6.565740300000471,None,,,,,,,0,32,32,32,249.9732995000013,,,,,,,,,,,,,,,,,,,,,,,,,,,,,,,,,,,,,,,,,,,,,,,,,,,,,,,,,,,[],Sin respuesta,[],,,,,,,6166.187400000126,1305.9574000001267,None,space,6.565740300000471,None,,,568041,2025-12-10_14h35.52.224,spl_exp,,2025.1.1,59.4011179287847,2025-12-10 14h36.03.856279 -0700,
d_2b_seg2.wav,931.81,2,item_4d,,dim,33,33,0,,,,,,,,,,0.0,1.0,1,None,None,None,space,1.0149051000007603,None,,,,,,,0,33,33,33,256.1898129000001,,,,,,,,,,,,,,,,,,,,,,,,,,,,,,,,,,,,,,,,,,,,,,,,,,,,,,,,,,,[],Sin respuesta,[],,,,,,,1012.3757000001206,80.56570000012061,None,space,1.0149051000007603,None,,,568041,2025-12-10_14h35.52.224,spl_exp,,2025.1.1,59.4011179287847,2025-12-10 14h36.03.856279 -0700,
d_2b_seg3.wav,622.24,3,item_4d,,dim,34,34,0,,,,,,,,,,0.0,1.0,1,None,None,None,space,0.818284400000266,None,,,,,,,0,34,34,34,257.2231173,,,,,,,,,,,,,,,,,,,,,,,,,,,,,,,,,,,,,,,,,,,,,,,,,,,,,,,,,,,[],Sin respuesta,[],,,,,,,815.2587000004132,193.01870000041322,None,space,0.818284400000266,None,,,568041,2025-12-10_14h35.52.224,spl_exp,,2025.1.1,59.4011179287847,2025-12-10 14h36.03.856279 -0700,
d_2b_seg4.wav,854.94,4,item_4d,,dim,35,35,0,,,,,,,,,,0.0,1.0,1,None,None,None,space,0.8967990000001009,None,,,,,,,0,35,35,35,258.05700700000125,,,,,,,,,,,,,,,,,,,,,,,,,,,,,,,,,,,,,,,,,,,,,,,,,,,,,,,,,,,[],Sin respuesta,[],,,,,,,891.0736999987421,36.13369999874203,None,space,0.8967990000001009,None,,,568041,2025-12-10_14h35.52.224,spl_exp,,2025.1.1,59.4011179287847,2025-12-10 14h36.03.856279 -0700,
d_2b_seg5.wav,688.0,5,item_4d,,dim,36,36,0,,,,,,,,,,0.0,1.0,1,None,None,None,space,0.7382334000012634,None,,,,,,,0,36,36,36,258.97280330000103,,,,,,,,,,,,,,,,,,,,,,,,,,,,,,,,,,,,,,,,,,,,,,,,,,,,,,,,,,,[],Sin respuesta,[],,,,,,,731.0374000007869,43.037400000786874,None,space,0.7382334000012634,None,,,568041,2025-12-10_14h35.52.224,spl_exp,,2025.1.1,59.4011179287847,2025-12-10 14h36.03.856279 -0700,
d_2b_seg6.wav,748.71,6,item_4d,,dim,37,37,0,,,,,,,,,,0.0,1.0,1,None,None,None,space,1.0592553000005864,None,,,,,,,0,37,37,37,259.7230223000006,,,,,,,,,,,,,,,,,,,,,,,,,,,,,,,,,,,,,,,,,,,,,,,,,,,,,,,,,,,[],Sin respuesta,[],,,,,,,1044.6778999994422,295.9678999994421,None,space,1.0592553000005864,None,,,568041,2025-12-10_14h35.52.224,spl_exp,,2025.1.1,59.4011179287847,2025-12-10 14h36.03.856279 -0700,
d_2b_seg7.wav,981.43,7,item_4d,,dim,38,38,0,,,,,,,,,,0.0,1.0,1,None,None,None,space,2.0698840000004566,None,,,,,,,0,38,38,38,260.8062839000013,,,,,,,,,,,,,,,,,,,,,,,,,,,,,,,,,,,,,,,,,,,,,,,,,,,,,,,,,,,[],Sin respuesta,[],,,,,,,2068.0666000007477,1086.6366000007479,None,space,2.0698840000004566,None,,,568041,2025-12-10_14h35.52.224,spl_exp,,2025.1.1,59.4011179287847,2025-12-10 14h36.03.856279 -0700,
d_2b_seg8.wav,2077.66,8,item_4d,,dim,39,39,0,,,,,,,,,,0.0,1.0,1,None,None,f,space,0.333867299999838,None,0.5303958999993483,None,,,,,0,39,39,39,262.92275490000065,,,,,,,,,,,,,,,,,,,,,,,,,,,,,,,,,,,,,,,,,,,,,,,,,,,,,,,,,,,f,Sí,530.3958999993483,,,,,,,,,f,space,0.333867299999838,None,0.5303958999993483,None,568041,2025-12-10_14h35.52.224,spl_exp,,2025.1.1,59.4011179287847,2025-12-10 14h36.03.856279 -0700,
p_19a_seg1.wav,5570.27,1,item_37p,,plu,40,40,0,,,,,,,,,,None,None,1,1.0,0.0,None,space,6.9787515999996685,None,,,,,,,0,40,40,40,265.9560203000001,,,,,,,,,,,,,,,,,,,,,,,,,,,,,,,,,,,,,,,,,,,,,,,,,,,,,,,,,,,[],Sin respuesta,[],,,,,,,6546.704200000022,976.4342000000215,None,space,6.9787515999996685,None,,,568041,2025-12-10_14h35.52.224,spl_exp,,2025.1.1,59.4011179287847,2025-12-10 14h36.03.856279 -0700,
p_19a_seg2.wav,1188.91,2,item_37p,,plu,41,41,0,,,,,,,,,,None,None,1,1.0,0.0,None,space,1.4759493000001385,None,,,,,,,0,41,41,41,272.5726826000009,,,,,,,,,,,,,,,,,,,,,,,,,,,,,,,,,,,,,,,,,,,,,,,,,,,,,,,,,,,[],Sin respuesta,[],,,,,,,1456.9088999996893,267.99889999968923,None,space,1.4759493000001385,None,,,568041,2025-12-10_14h35.52.224,spl_exp,,2025.1.1,59.4011179287847,2025-12-10 14h36.03.856279 -0700,
p_19a_seg3.wav,1055.4,3,item_37p,,plu,42,42,0,,,,,,,,,,None,None,1,1.0,0.0,None,space,1.1702739000011206,None,,,,,,,0,42,42,42,274.07346510000025,,,,,,,,,,,,,,,,,,,,,,,,,,,,,,,,,,,,,,,,,,,,,,,,,,,,,,,,,,,[],Sin respuesta,[],,,,,,,1162.1985000001587,106.79850000015858,None,space,1.1702739000011206,None,,,568041,2025-12-10_14h35.52.224,spl_exp,,2025.1.1,59.4011179287847,2025-12-10 14h36.03.856279 -0700,
p_19a_seg4.wav,1430.52,4,item_37p,,plu,43,43,0,,,,,,,,,,None,None,1,1.0,0.0,None,space,1.468713199999911,None,,,,,,,0,43,43,43,275.2728944999999,,,,,,,,,,,,,,,,,,,,,,,,,,,,,,,,,,,,,,,,,,,,,,,,,,,,,,,,,,,[],Sin respuesta,[],,,,,,,1449.2745000006835,18.754500000683493,None,space,1.468713199999911,None,,,568041,2025-12-10_14h35.52.224,spl_exp,,2025.1.1,59.4011179287847,2025-12-10 14h36.03.856279 -0700,
p_19a_seg5.wav,960.05,5,item_37p,,plu,44,44,0,,,,,,,,,,None,None,1,1.0,0.0,None,space,1.413349799999196,None,,,,,,,0,44,44,44,276.7557538000001,,,,,,,,,,,,,,,,,,,,,,,,,,,,,,,,,,,,,,,,,,,,,,,,,,,,,,,,,,,[],Sin respuesta,[],,,,,,,1401.8045000011625,441.75450000116257,None,space,1.413349799999196,None,,,568041,2025-12-10_14h35.52.224,spl_exp,,2025.1.1,59.4011179287847,2025-12-10 14h36.03.856279 -0700,
p_19a_seg6.wav,1220.7,6,item_37p,,plu,45,45,0,,,,,,,,,,None,None,1,1.0,0.0,None,space,1.2940870999991603,None,,,,,,,0,45,45,45,278.17273920000116,,,,,,,,,,,,,,,,,,,,,,,,,,,,,,,,,,,,,,,,,,,,,,,,,,,,,,,,,,,[],Sin respuesta,[],,,,,,,1294.6959000000788,73.99590000007879,None,space,1.2940870999991603,None,,,568041,2025-12-10_14h35.52.224,spl_exp,,2025.1.1,59.4011179287847,2025-12-10 14h36.03.856279 -0700,
p_19a_seg7.wav,2105.99,7,item_37p,,plu,46,46,0,,,,,,,,,,None,None,1,1.0,0.0,None,space,2.382610899998326,None,,,,,,,0,46,46,46,279.5061811000014,,,,,,,,,,,,,,,,,,,,,,,,,,,,,,,,,,,,,,,,,,,,,,,,,,,,,,,,,,,[],Sin respuesta,[],,,,,,,2357.4573999994755,251.46739999947567,None,space,2.382610899998326,None,,,568041,2025-12-10_14h35.52.224,spl_exp,,2025.1.1,59.4011179287847,2025-12-10 14h36.03.856279 -0700,
p_19a_seg8.wav,2288.8,8,item_37p,,plu,47,47,0,,,,,,,,,,None,None,1,1.0,0.0,f,space,0.23562929999934568,None,2.2685292999995,None,,,,,0,47,47,47,281.93992230000003,,,,,,,,,,,,,,,,,,,,,,,,,,,,,,,,,,,,,,,,,,,,,,,,,,,,,,,,,,,f,Sí,2268.5292999995,,,,,,,,,f,space,0.23562929999934568,None,2.2685292999995,None,568041,2025-12-10_14h35.52.224,spl_exp,,2025.1.1,59.4011179287847,2025-12-10 14h36.03.856279 -0700,
d_14b_seg1.wav,5429.84,1,item_28d,,dim,48,48,0,,,,,,,,,,0.0,1.0,1,None,None,None,space,6.091738499999337,None,,,,,,,0,48,48,48,284.55611560000034,,,,,,,,,,,,,,,,,,,,,,,,,,,,,,,,,,,,,,,,,,,,,,,,,,,,,,,,,,,[],Sin respuesta,[],,,,,,,5774.761200000285,344.92120000028444,None,space,6.091738499999337,None,,,568041,2025-12-10_14h35.52.224,spl_exp,,2025.1.1,59.4011179287847,2025-12-10 14h36.03.856279 -0700,
d_14b_seg2.wav,884.69,2,item_28d,,dim,49,49,0,,,,,,,,,,0.0,1.0,1,None,None,None,space,1.1598686999986967,None,,,,,,,0,49,49,49,290.38932190000014,,,,,,,,,,,,,,,,,,,,,,,,,,,,,,,,,,,,,,,,,,,,,,,,,,,,,,,,,,,[],Sin respuesta,[],,,,,,,1156.4656000009563,271.7756000009563,None,space,1.1598686999986967,None,,,568041,2025-12-10_14h35.52.224,spl_exp,,2025.1.1,59.4011179287847,2025-12-10 14h36.03.856279 -0700,
d_14b_seg3.wav,697.3,3,item_28d,,dim,50,50,0,,,,,,,,,,0.0,1.0,1,None,None,None,space,0.7711355999999796,None,,,,,,,0,50,50,50,291.5727800000004,,,,,,,,,,,,,,,,,,,,,,,,,,,,,,,,,,,,,,,,,,,,,,,,,,,,,,,,,,,[],Sin respuesta,[],,,,,,,774.3492999998125,77.04929999981255,None,space,0.7711355999999796,None,,,568041,2025-12-10_14h35.52.224,spl_exp,,2025.1.1,59.4011179287847,2025-12-10 14h36.03.856279 -0700,
d_14b_seg4.wav,767.05,4,item_28d,,dim,51,51,0,,,,,,,,,,0.0,1.0,1,None,None,None,space,1.0248382999998285,None,,,,,,,0,51,51,51,292.3902186000014,,,,,,,,,,,,,,,,,,,,,,,,,,,,,,,,,,,,,,,,,,,,,,,,,,,,,,,,,,,[],Sin respuesta,[],,,,,,,1016.0297999991599,248.97979999915992,None,space,1.0248382999998285,None,,,568041,2025-12-10_14h35.52.224,spl_exp,,2025.1.1,59.4011179287847,2025-12-10 14h36.03.856279 -0700,
d_14b_seg5.wav,679.89,5,item_28d,,dim,52,52,0,,,,,,,,,,0.0,1.0,1,None,None,None,space,1.085736099999849,None,,,,,,,0,52,52,52,293.4393620999999,,,,,,,,,,,,,,,,,,,,,,,,,,,,,,,,,,,,,,,,,,,,,,,,,,,,,,,,,,,[],Sin respuesta,[],,,,,,,1087.5544999998965,407.6644999998965,None,space,1.085736099999849,None,,,568041,2025-12-10_14h35.52.224,spl_exp,,2025.1.1,59.4011179287847,2025-12-10 14h36.03.856279 -0700,
d_14b_seg6.wav,775.76,6,item_28d,,dim,53,53,0,,,,,,,,,,0.0,1.0,1,None,None,None,space,1.188583600000129,None,,,,,,,0,53,53,53,294.53929940000125,,,,,,,,,,,,,,,,,,,,,,,,,,,,,,,,,,,,,,,,,,,,,,,,,,,,,,,,,,,[],Sin respuesta,[],,,,,,,1176.7397999992681,400.97979999926815,None,space,1.188583600000129,None,,,568041,2025-12-10_14h35.52.224,spl_exp,,2025.1.1,59.4011179287847,2025-12-10 14h36.03.856279 -0700,
d_14b_seg7.wav,989.3,7,item_28d,,dim,54,54,0,,,,,,,,,,0.0,1.0,1,None,None,None,space,1.2556325000005018,None,,,,,,,0,54,54,54,295.7728160000006,,,,,,,,,,,,,,,,,,,,,,,,,,,,,,,,,,,,,,,,,,,,,,,,,,,,,,,,,,,[],Sin respuesta,[],,,,,,,1234.4124999999622,245.1124999999622,None,space,1.2556325000005018,None,,,568041,2025-12-10_14h35.52.224,spl_exp,,2025.1.1,59.4011179287847,2025-12-10 14h36.03.856279 -0700,
d_14b_seg8.wav,2626.64,8,item_28d,,dim,55,55,0,,,,,,,,,,0.0,1.0,1,None,None,f,space,0.7369613999999274,None,2.5851856999997835,None,,,,,0,55,55,55,297.0560491000015,,,,,,,,,,,,,,,,,,,,,,,,,,,,,,,,,,,,,,,,,,,,,,,,,,,,,,,,,,,f,Sí,2585.1856999997835,,,,,,,,,f,space,0.7369613999999274,None,2.5851856999997835,None,568041,2025-12-10_14h35.52.224,spl_exp,,2025.1.1,59.4011179287847,2025-12-10 14h36.03.856279 -0700,
p_10b_seg1.wav,5026.85,1,item_20p,,plu,56,56,0,,,,,,,,,,None,None,1,0.0,1.0,None,space,5.941475800000262,None,,,,,,,0,56,56,56,300.5055519000016,,,,,,,,,,,,,,,,,,,,,,,,,,,,,,,,,,,,,,,,,,,,,,,,,,,,,,,,,,,[],Sin respuesta,[],,,,,,,5149.043100000199,122.19310000019868,None,space,5.941475800000262,None,,,568041,2025-12-10_14h35.52.224,spl_exp,,2025.1.1,59.4011179287847,2025-12-10 14h36.03.856279 -0700,
p_10b_seg2.wav,824.4,2,item_20p,,plu,57,57,0,,,,,,,,,,None,None,1,0.0,1.0,None,space,1.3983031000007031,None,,,,,,,0,57,57,57,305.7055599000014,,,,,,,,,,,,,,,,,,,,,,,,,,,,,,,,,,,,,,,,,,,,,,,,,,,,,,,,,,,[],Sin respuesta,[],,,,,,,1388.614299999972,564.214299999972,None,space,1.3983031000007031,None,,,568041,2025-12-10_14h35.52.224,spl_exp,,2025.1.1,59.4011179287847,2025-12-10 14h36.03.856279 -0700,
p_10b_seg3.wav,1436.03,3,item_20p,,plu,58,58,0,,,,,,,,,,None,None,1,0.0,1.0,None,space,2.039504099999249,None,,,,,,,0,58,58,58,307.1221346000002,,,,,,,,,,,,,,,,,,,,,,,,,,,,,,,,,,,,,,,,,,,,,,,,,,,,,,,,,,,[],Sin respuesta,[],,,,,,,2032.4377000015375,596.4077000015375,None,space,2.039504099999249,None,,,568041,2025-12-10_14h35.52.224,spl_exp,,2025.1.1,59.4011179287847,2025-12-10 14h36.03.856279 -0700,
p_10b_seg4.wav,1535.78,4,item_20p,,plu,59,59,0,,,,,,,,,,None,None,1,0.0,1.0,None,space,1.678650399999242,None,,,,,,,0,59,59,59,309.17180290000033,,,,,,,,,,,,,,,,,,,,,,,,,,,,,,,,,,,,,,,,,,,,,,,,,,,,,,,,,,,[],Sin respuesta,[],,,,,,,1686.9587999990472,151.17879999904721,None,space,1.678650399999242,None,,,568041,2025-12-10_14h35.52.224,spl_exp,,2025.1.1,59.4011179287847,2025-12-10 14h36.03.856279 -0700,
p_10b_seg5.wav,977.3,5,item_20p,,plu,60,60,0,,,,,,,,,,None,None,1,0.0,1.0,None,space,2.0966170000010607,None,,,,,,,0,60,60,60,310.87182490000123,,,,,,,,,,,,,,,,,,,,,,,,,,,,,,,,,,,,,,,,,,,,,,,,,,,,,,,,,,,[],Sin respuesta,[],,,,,,,2095.3847999990103,1118.0847999990103,None,space,2.0966170000010607,None,,,568041,2025-12-10_14h35.52.224,spl_exp,,2025.1.1,59.4011179287847,2025-12-10 14h36.03.856279 -0700,
p_10b_seg6.wav,1342.97,6,item_20p,,plu,61,61,0,,,,,,,,,,None,None,1,0.0,1.0,None,space,1.5367126999990433,None,,,,,,,0,61,61,61,312.98818480000045,,,,,,,,,,,,,,,,,,,,,,,,,,,,,,,,,,,,,,,,,,,,,,,,,,,,,,,,,,,[],Sin respuesta,[],,,,,,,1534.5512999992934,191.58129999929338,None,space,1.5367126999990433,None,,,568041,2025-12-10_14h35.52.224,spl_exp,,2025.1.1,59.4011179287847,2025-12-10 14h36.03.856279 -0700,
p_10b_seg7.wav,1741.86,7,item_20p,,plu,62,62,0,,,,,,,,,,None,None,1,0.0,1.0,None,space,2.037074299998494,None,,,,,,,0,62,62,62,314.5548598000005,,,,,,,,,,,,,,,,,,,,,,,,,,,,,,,,,,,,,,,,,,,,,,,,,,,,,,,,,,,[],Sin respuesta,[],,,,,,,2018.5598000007303,276.6998000007304,None,space,2.037074299998494,None,,,568041,2025-12-10_14h35.52.224,spl_exp,,2025.1.1,59.4011179287847,2025-12-10 14h36.03.856279 -0700,
p_10b_seg8.wav,1808.34,8,item_20p,,plu,63,63,0,,,,,,,,,,None,None,1,0.0,1.0,f,space,0.49060110000027635,None,0.1745427000005293,None,,,,,0,63,63,63,316.63809690000016,,,,,,,,,,,,,,,,,,,,,,,,,,,,,,,,,,,,,,,,,,,,,,,,,,,,,,,,,,,f,Sí,174.5427000005293,,,,,,,,,f,space,0.49060110000027635,None,0.1745427000005293,None,568041,2025-12-10_14h35.52.224,spl_exp,,2025.1.1,59.4011179287847,2025-12-10 14h36.03.856279 -0700,
d_9a_seg1.wav,5909.93,1,item_17d,,dim,64,64,0,,,,,,,,,,1.0,0.0,1,None,None,None,space,7.1505985999992845,None,,,,,,,0,64,64,64,319.188637700001,,,,,,,,,,,,,,,,,,,,,,,,,,,,,,,,,,,,,,,,,,,,,,,,,,,,,,,,,,,[],Sin respuesta,[],,,,,,,6593.246599999475,683.3165999994744,None,space,7.1505985999992845,None,,,568041,2025-12-10_14h35.52.224,spl_exp,,2025.1.1,59.4011179287847,2025-12-10 14h36.03.856279 -0700,
d_9a_seg2.wav,876.15,2,item_17d,,dim,65,65,0,,,,,,,,,,1.0,0.0,1,None,None,None,space,1.0296930999993492,None,,,,,,,0,65,65,65,325.83808920000047,,,,,,,,,,,,,,,,,,,,,,,,,,,,,,,,,,,,,,,,,,,,,,,,,,,,,,,,,,,[],Sin respuesta,[],,,,,,,1022.6867000001221,146.5367000001221,None,space,1.0296930999993492,None,,,568041,2025-12-10_14h35.52.224,spl_exp,,2025.1.1,59.4011179287847,2025-12-10 14h36.03.856279 -0700,
d_9a_seg3.wav,802.31,3,item_17d,,dim,66,66,0,,,,,,,,,,1.0,0.0,1,None,None,None,space,1.0189004000003479,None,,,,,,,0,66,66,66,326.88801010000134,,,,,,,,,,,,,,,,,,,,,,,,,,,,,,,,,,,,,,,,,,,,,,,,,,,,,,,,,,,[],Sin respuesta,[],,,,,,,1014.6838999989996,212.3738999989996,None,space,1.0189004000003479,None,,,568041,2025-12-10_14h35.52.224,spl_exp,,2025.1.1,59.4011179287847,2025-12-10 14h36.03.856279 -0700,
d_9a_seg4.wav,1063.2,4,item_17d,,dim,67,67,0,,,,,,,,,,1.0,0.0,1,None,None,None,space,2.0492864999996527,None,,,,,,,0,67,67,67,327.92123260000153,,,,,,,,,,,,,,,,,,,,,,,,,,,,,,,,,,,,,,,,,,,,,,,,,,,,,,,,,,,[],Sin respuesta,[],,,,,,,2047.8760000005423,984.6760000005422,None,space,2.0492864999996527,None,,,568041,2025-12-10_14h35.52.224,spl_exp,,2025.1.1,59.4011179287847,2025-12-10 14h36.03.856279 -0700,
d_9a_seg5.wav,728.48,5,item_17d,,dim,68,68,0,,,,,,,,,,1.0,0.0,1,None,None,None,space,1.4838553999998112,None,,,,,,,0,68,68,68,330.004351900001,,,,,,,,,,,,,,,,,,,,,,,,,,,,,,,,,,,,,,,,,,,,,,,,,,,,,,,,,,,[],Sin respuesta,[],,,,,,,1487.9354000004241,759.4554000004241,None,space,1.4838553999998112,None,,,568041,2025-12-10_14h35.52.224,spl_exp,,2025.1.1,59.4011179287847,2025-12-10 14h36.03.856279 -0700,
d_9a_seg6.wav,890.91,6,item_17d,,dim,69,69,0,,,,,,,,,,1.0,0.0,1,None,None,None,space,1.2275460000000749,None,,,,,,,0,69,69,69,331.50438960000065,,,,,,,,,,,,,,,,,,,,,,,,,,,,,,,,,,,,,,,,,,,,,,,,,,,,,,,,,,,[],Sin respuesta,[],,,,,,,1234.3278999996983,343.4178999996983,None,space,1.2275460000000749,None,,,568041,2025-12-10_14h35.52.224,spl_exp,,2025.1.1,59.4011179287847,2025-12-10 14h36.03.856279 -0700,
d_9a_seg7.wav,1402.81,7,item_17d,,dim,70,70,0,,,,,,,,,,1.0,0.0,1,None,None,None,space,1.7179692999998224,None,,,,,,,0,70,70,70,332.7545512000015,,,,,,,,,,,,,,,,,,,,,,,,,,,,,,,,,,,,,,,,,,,,,,,,,,,,,,,,,,,[],Sin respuesta,[],,,,,,,1718.0239999997866,315.21399999978667,None,space,1.7179692999998224,None,,,568041,2025-12-10_14h35.52.224,spl_exp,,2025.1.1,59.4011179287847,2025-12-10 14h36.03.856279 -0700,
d_9a_seg8.wav,2638.28,8,item_17d,,dim,71,71,0,,,,,,,,,,1.0,0.0,1,None,None,f,space,0.7834086000002571,None,0.1839882000003854,None,,,,,0,71,71,71,334.4880014999999,,,,,,,,,,,,,,,,,,,,,,,,,,,,,,,,,,,,,,,,,,,,,,,,,,,,,,,,,,,f,Sí,183.9882000003854,,,,,,,,,f,space,0.7834086000002571,None,0.1839882000003854,None,568041,2025-12-10_14h35.52.224,spl_exp,,2025.1.1,59.4011179287847,2025-12-10 14h36.03.856279 -0700,
p_14b_seg1.wav,5570.29,1,item_28p,,plu,72,72,0,,,,,,,,,,None,None,1,0.0,1.0,None,space,6.668811300000016,None,,,,,,,0,72,72,72,338.17091750000145,,,,,,,,,,,,,,,,,,,,,,,,,,,,,,,,,,,,,,,,,,,,,,,,,,,,,,,,,,,[],Sin respuesta,[],,,,,,,5844.693900000493,274.4039000004932,None,space,6.668811300000016,None,,,568041,2025-12-10_14h35.52.224,spl_exp,,2025.1.1,59.4011179287847,2025-12-10 14h36.03.856279 -0700,
p_14b_seg2.wav,1109.95,2,item_28p,,plu,73,73,0,,,,,,,,,,None,None,1,0.0,1.0,None,space,1.4515919999994367,None,,,,,,,0,73,73,73,344.05394570000135,,,,,,,,,,,,,,,,,,,,,,,,,,,,,,,,,,,,,,,,,,,,,,,,,,,,,,,,,,,[],Sin respuesta,[],,,,,,,1442.0461999998224,332.0961999998224,None,space,1.4515919999994367,None,,,568041,2025-12-10_14h35.52.224,spl_exp,,2025.1.1,59.4011179287847,2025-12-10 14h36.03.856279 -0700,
p_14b_seg3.wav,1034.26,3,item_28p,,plu,74,74,0,,,,,,,,,,None,None,1,0.0,1.0,None,space,1.546457399999781,None,,,,,,,0,74,74,74,345.52080000000024,,,,,,,,,,,,,,,,,,,,,,,,,,,,,,,,,,,,,,,,,,,,,,,,,,,,,,,,,,,[],Sin respuesta,[],,,,,,,1542.91750000084,508.65750000083995,None,space,1.546457399999781,None,,,568041,2025-12-10_14h35.52.224,spl_exp,,2025.1.1,59.4011179287847,2025-12-10 14h36.03.856279 -0700,
p_14b_seg4.wav,1469.41,4,item_28p,,plu,75,75,0,,,,,,,,,,None,None,1,0.0,1.0,None,space,1.7415438999996695,None,,,,,,,0,75,75,75,347.0875089000001,,,,,,,,,,,,,,,,,,,,,,,,,,,,,,,,,,,,,,,,,,,,,,,,,,,,,,,,,,,[],Sin respuesta,[],,,,,,,1731.5066999999544,262.09669999995435,None,space,1.7415438999996695,None,,,568041,2025-12-10_14h35.52.224,spl_exp,,2025.1.1,59.4011179287847,2025-12-10 14h36.03.856279 -0700,
p_14b_seg5.wav,971.2,5,item_28p,,plu,76,76,0,,,,,,,,,,None,None,1,0.0,1.0,None,space,1.5524688000004971,None,,,,,,,0,76,76,76,348.85596760000044,,,,,,,,,,,,,,,,,,,,,,,,,,,,,,,,,,,,,,,,,,,,,,,,,,,,,,,,,,,[],Sin respuesta,[],,,,,,,1547.787999999855,576.5879999998549,None,space,1.5524688000004971,None,,,568041,2025-12-10_14h35.52.224,spl_exp,,2025.1.1,59.4011179287847,2025-12-10 14h36.03.856279 -0700,
p_14b_seg6.wav,1349.59,6,item_28p,,plu,77,77,0,,,,,,,,,,None,None,1,0.0,1.0,None,space,1.8157430999999633,None,,,,,,,0,77,77,77,350.4209144000015,,,,,,,,,,,,,,,,,,,,,,,,,,,,,,,,,,,,,,,,,,,,,,,,,,,,,,,,,,,[],Sin respuesta,[],,,,,,,1816.8182999997953,467.22829999979535,None,space,1.8157430999999633,None,,,568041,2025-12-10_14h35.52.224,spl_exp,,2025.1.1,59.4011179287847,2025-12-10 14h36.03.856279 -0700,
p_14b_seg7.wav,1860.43,7,item_28p,,plu,78,78,0,,,,,,,,,,None,None,1,0.0,1.0,None,space,2.0798974000008457,None,,,,,,,0,78,78,78,352.2537779000013,,,,,,,,,,,,,,,,,,,,,,,,,,,,,,,,,,,,,,,,,,,,,,,,,,,,,,,,,,,[],Sin respuesta,[],,,,,,,2084.453900000881,224.02390000088076,None,space,2.0798974000008457,None,,,568041,2025-12-10_14h35.52.224,spl_exp,,2025.1.1,59.4011179287847,2025-12-10 14h36.03.856279 -0700,
p_14b_seg8.wav,2085.42,8,item_28p,,plu,79,79,0,,,,,,,,,,None,None,1,0.0,1.0,j,space,0.2708082999997714,None,0.05051099999946018,None,,,,,0,79,79,79,354.37086360000103,,,,,,,,,,,,,,,,,,,,,,,,,,,,,,,,,,,,,,,,,,,,,,,,,,,,,,,,,,,j,No,50.51099999946018,,,,,,,,,j,space,0.2708082999997714,None,0.05051099999946018,None,568041,2025-12-10_14h35.52.224,spl_exp,,2025.1.1,59.4011179287847,2025-12-10 14h36.03.856279 -0700,
d_23a_seg1.wav,5993.11,1,item_45d,,dim,80,80,0,,,,,,,,,,0.0,1.0,1,None,None,None,space,6.485366299999441,None,,,,,,,0,80,80,80,356.87030779999986,,,,,,,,,,,,,,,,,,,,,,,,,,,,,,,,,,,,,,,,,,,,,,,,,,,,,,,,,,,[],Sin respuesta,[],,,,,,,6150.585400000637,157.4754000006369,None,space,6.485366299999441,None,,,568041,2025-12-10_14h35.52.224,spl_exp,,2025.1.1,59.4011179287847,2025-12-10 14h36.03.856279 -0700,
d_23a_seg2.wav,966.3,2,item_45d,,dim,81,81,0,,,,,,,,,,0.0,1.0,1,None,None,None,space,1.2615217999991728,None,,,,,,,0,81,81,81,363.07030960000156,,,,,,,,,,,,,,,,,,,,,,,,,,,,,,,,,,,,,,,,,,,,,,,,,,,,,,,,,,,[],Sin respuesta,[],,,,,,,1259.3004999998811,293.0004999998812,None,space,1.2615217999991728,None,,,568041,2025-12-10_14h35.52.224,spl_exp,,2025.1.1,59.4011179287847,2025-12-10 14h36.03.856279 -0700,
d_23a_seg3.wav,804.44,3,item_45d,,dim,82,82,0,,,,,,,,,,0.0,1.0,1,None,None,None,space,1.0484675000006973,None,,,,,,,0,82,82,82,364.3545986000008,,,,,,,,,,,,,,,,,,,,,,,,,,,,,,,,,,,,,,,,,,,,,,,,,,,,,,,,,,,[],Sin respuesta,[],,,,,,,1051.9994000005681,247.55940000056808,None,space,1.0484675000006973,None,,,568041,2025-12-10_14h35.52.224,spl_exp,,2025.1.1,59.4011179287847,2025-12-10 14h36.03.856279 -0700,
d_23a_seg4.wav,1147.78,4,item_45d,,dim,83,83,0,,,,,,,,,,0.0,1.0,1,None,None,None,space,1.3229123000000982,None,,,,,,,0,83,83,83,365.42047770000136,,,,,,,,,,,,,,,,,,,,,,,,,,,,,,,,,,,,,,,,,,,,,,,,,,,,,,,,,,,[],Sin respuesta,[],,,,,,,1315.6309999994846,167.85099999948466,None,space,1.3229123000000982,None,,,568041,2025-12-10_14h35.52.224,spl_exp,,2025.1.1,59.4011179287847,2025-12-10 14h36.03.856279 -0700,
d_23a_seg5.wav,828.96,5,item_45d,,dim,84,84,0,,,,,,,,,,0.0,1.0,1,None,None,None,space,1.169255200000407,None,,,,,,,0,84,84,84,366.75363319999997,,,,,,,,,,,,,,,,,,,,,,,,,,,,,,,,,,,,,,,,,,,,,,,,,,,,,,,,,,,[],Sin respuesta,[],,,,,,,1170.8966000005603,341.93660000056025,None,space,1.169255200000407,None,,,568041,2025-12-10_14h35.52.224,spl_exp,,2025.1.1,59.4011179287847,2025-12-10 14h36.03.856279 -0700,
d_23a_seg6.wav,936.85,6,item_45d,,dim,85,85,0,,,,,,,,,,0.0,1.0,1,None,None,None,space,1.1209218000003602,None,,,,,,,0,85,85,85,367.93697800000155,,,,,,,,,,,,,,,,,,,,,,,,,,,,,,,,,,,,,,,,,,,,,,,,,,,,,,,,,,,[],Sin respuesta,[],,,,,,,1112.821900000199,175.97190000019907,None,space,1.1209218000003602,None,,,568041,2025-12-10_14h35.52.224,spl_exp,,2025.1.1,59.4011179287847,2025-12-10 14h36.03.856279 -0700,
d_23a_seg7.wav,1236.08,7,item_45d,,dim,86,86,0,,,,,,,,,,0.0,1.0,1,None,None,None,space,1.6785079000001133,None,,,,,,,0,86,86,86,369.05441770000107,,,,,,,,,,,,,,,,,,,,,,,,,,,,,,,,,,,,,,,,,,,,,,,,,,,,,,,,,,,[],Sin respuesta,[],,,,,,,1688.2674000007682,452.1874000007683,None,space,1.6785079000001133,None,,,568041,2025-12-10_14h35.52.224,spl_exp,,2025.1.1,59.4011179287847,2025-12-10 14h36.03.856279 -0700,
d_23a_seg8.wav,2984.24,8,item_45d,,dim,87,87,0,,,,,,,,,,0.0,1.0,1,None,None,f,space,0.63598169999932,None,0.23429960000066785,None,,,,,0,87,87,87,370.7868997000005,,,,,,,,,,,,,,,,,,,,,,,,,,,,,,,,,,,,,,,,,,,,,,,,,,,,,,,,,,,f,Sí,234.29960000066785,,,,,,,,,f,space,0.63598169999932,None,0.23429960000066785,None,568041,2025-12-10_14h35.52.224,spl_exp,,2025.1.1,59.4011179287847,2025-12-10 14h36.03.856279 -0700,
p_12b_seg1.wav,5502.36,1,item_24p,,plu,88,88,0,,,,,,,,,,None,None,1,0.0,1.0,None,space,6.305939599998965,None,,,,,,,0,88,88,88,374.72036370000023,,,,,,,,,,,,,,,,,,,,,,,,,,,,,,,,,,,,,,,,,,,,,,,,,,,,,,,,,,,[],Sin respuesta,[],,,,,,,5612.402299999303,110.0422999993034,None,space,6.305939599998965,None,,,568041,2025-12-10_14h35.52.224,spl_exp,,2025.1.1,59.4011179287847,2025-12-10 14h36.03.856279 -0700,
p_12b_seg2.wav,1453.81,2,item_24p,,plu,89,89,0,,,,,,,,,,None,None,1,0.0,1.0,None,space,1.8356274999987363,None,,,,,,,0,89,89,89,380.3868029000005,,,,,,,,,,,,,,,,,,,,,,,,,,,,,,,,,,,,,,,,,,,,,,,,,,,,,,,,,,,[],Sin respuesta,[],,,,,,,1832.3286999984703,378.5186999984703,None,space,1.8356274999987363,None,,,568041,2025-12-10_14h35.52.224,spl_exp,,2025.1.1,59.4011179287847,2025-12-10 14h36.03.856279 -0700,
p_12b_seg3.wav,932.09,3,item_24p,,plu,90,90,0,,,,,,,,,,None,None,1,0.0,1.0,None,space,1.394410799999605,None,,,,,,,0,90,90,90,382.23644950000016,,,,,,,,,,,,,,,,,,,,,,,,,,,,,,,,,,,,,,,,,,,,,,,,,,,,,,,,,,,[],Sin respuesta,[],,,,,,,1396.5888999991876,464.49889999918753,None,space,1.394410799999605,None,,,568041,2025-12-10_14h35.52.224,spl_exp,,2025.1.1,59.4011179287847,2025-12-10 14h36.03.856279 -0700,
p_12b_seg4.wav,1662.47,4,item_24p,,plu,91,91,0,,,,,,,,,,None,None,1,0.0,1.0,None,space,1.9453087000001688,None,,,,,,,0,91,91,91,383.65290730000015,,,,,,,,,,,,,,,,,,,,,,,,,,,,,,,,,,,,,,,,,,,,,,,,,,,,,,,,,,,[],Sin respuesta,[],,,,,,,1945.1615999987553,282.69159999875524,None,space,1.9453087000001688,None,,,568041,2025-12-10_14h35.52.224,spl_exp,,2025.1.1,59.4011179287847,2025-12-10 14h36.03.856279 -0700,
p_12b_seg5.wav,925.15,5,item_24p,,plu,92,92,0,,,,,,,,,,None,None,1,0.0,1.0,None,space,0.974246800000401,None,,,,,,,0,92,92,92,385.62041520000093,,,,,,,,,,,,,,,,,,,,,,,,,,,,,,,,,,,,,,,,,,,,,,,,,,,,,,,,,,,[],Sin respuesta,[],,,,,,,984.0105999992375,58.86059999923748,None,space,0.974246800000401,None,,,568041,2025-12-10_14h35.52.224,spl_exp,,2025.1.1,59.4011179287847,2025-12-10 14h36.03.856279 -0700,
p_12b_seg6.wav,1126.87,6,item_24p,,plu,93,93,0,,,,,,,,,,None,None,1,0.0,1.0,None,space,1.7077361999999994,None,,,,,,,0,93,93,93,386.62017620000006,,,,,,,,,,,,,,,,,,,,,,,,,,,,,,,,,,,,,,,,,,,,,,,,,,,,,,,,,,,[],Sin respuesta,[],,,,,,,1705.970499999239,579.1004999992392,None,space,1.7077361999999994,None,,,568041,2025-12-10_14h35.52.224,spl_exp,,2025.1.1,59.4011179287847,2025-12-10 14h36.03.856279 -0700,
p_12b_seg7.wav,1899.0,7,item_24p,,plu,94,94,0,,,,,,,,,,None,None,1,0.0,1.0,None,space,1.9526304000009986,None,,,,,,,0,94,94,94,388.35285960000147,,,,,,,,,,,,,,,,,,,,,,,,,,,,,,,,,,,,,,,,,,,,,,,,,,,,,,,,,,,[],Sin respuesta,[],,,,,,,1943.0419000000256,44.041900000025635,None,space,1.9526304000009986,None,,,568041,2025-12-10_14h35.52.224,spl_exp,,2025.1.1,59.4011179287847,2025-12-10 14h36.03.856279 -0700,
p_12b_seg8.wav,2365.03,8,item_24p,,plu,95,95,0,,,,,,,,,,None,None,1,0.0,1.0,f,space,0.42785770000045886,None,0.31388890000016545,None,,,,,0,95,95,95,390.3527844,,,,,,,,,,,,,,,,,,,,,,,,,,,,,,,,,,,,,,,,,,,,,,,,,,,,,,,,,,,f,Sí,313.88890000016545,,,,,,,,,f,space,0.42785770000045886,None,0.31388890000016545,None,568041,2025-12-10_14h35.52.224,spl_exp,,2025.1.1,59.4011179287847,2025-12-10 14h36.03.856279 -0700,
d_3a_seg1.wav,6430.73,1,item_5d,,dim,96,96,0,,,,,,,,,,0.0,1.0,1,None,None,None,space,7.481645300000309,None,,,,,,,0,96,96,96,393.5528484000006,,,,,,,,,,,,,,,,,,,,,,,,,,,,,,,,,,,,,,,,,,,,,,,,,,,,,,,,,,,[],Sin respuesta,[],,,,,,,6970.806500001345,540.0765000013453,None,space,7.481645300000309,None,,,568041,2025-12-10_14h35.52.224,spl_exp,,2025.1.1,59.4011179287847,2025-12-10 14h36.03.856279 -0700,
d_3a_seg2.wav,927.21,2,item_5d,,dim,97,97,0,,,,,,,,,,0.0,1.0,1,None,None,None,space,1.0379525000007561,None,,,,,,,0,97,97,97,400.5862794000004,,,,,,,,,,,,,,,,,,,,,,,,,,,,,,,,,,,,,,,,,,,,,,,,,,,,,,,,,,,[],Sin respuesta,[],,,,,,,1046.4840999993612,119.27409999936117,None,space,1.0379525000007561,None,,,568041,2025-12-10_14h35.52.224,spl_exp,,2025.1.1,59.4011179287847,2025-12-10 14h36.03.856279 -0700,
d_3a_seg3.wav,664.97,3,item_5d,,dim,98,98,0,,,,,,,,,,0.0,1.0,1,None,None,None,space,1.2252258999997139,None,,,,,,,0,98,98,98,401.6374082000002,,,,,,,,,,,,,,,,,,,,,,,,,,,,,,,,,,,,,,,,,,,,,,,,,,,,,,,,,,,[],Sin respuesta,[],,,,,,,1221.3052000006428,556.3352000006428,None,space,1.2252258999997139,None,,,568041,2025-12-10_14h35.52.224,spl_exp,,2025.1.1,59.4011179287847,2025-12-10 14h36.03.856279 -0700,
d_3a_seg4.wav,960.0,4,item_5d,,dim,99,99,0,,,,,,,,,,0.0,1.0,1,None,None,None,space,0.9927704999990965,None,,,,,,,0,99,99,99,402.8863299000004,,,,,,,,,,,,,,,,,,,,,,,,,,,,,,,,,,,,,,,,,,,,,,,,,,,,,,,,,,,[],Sin respuesta,[],,,,,,,1001.910200000566,41.910200000565965,None,space,0.9927704999990965,None,,,568041,2025-12-10_14h35.52.224,spl_exp,,2025.1.1,59.4011179287847,2025-12-10 14h36.03.856279 -0700,
d_3a_seg5.wav,763.31,5,item_5d,,dim,100,100,0,,,,,,,,,,0.0,1.0,1,None,None,None,space,1.3929153999997652,None,,,,,,,0,100,100,100,403.88724640000146,,,,,,,,,,,,,,,,,,,,,,,,,,,,,,,,,,,,,,,,,,,,,,,,,,,,,,,,,,,[],Sin respuesta,[],,,,,,,1388.964899999337,625.654899999337,None,space,1.3929153999997652,None,,,568041,2025-12-10_14h35.52.224,spl_exp,,2025.1.1,59.4011179287847,2025-12-10 14h36.03.856279 -0700,
d_3a_seg6.wav,922.54,6,item_5d,,dim,101,101,0,,,,,,,,,,0.0,1.0,1,None,None,None,space,1.509234999999535,None,,,,,,,0,101,101,101,405.30293410000013,,,,,,,,,,,,,,,,,,,,,,,,,,,,,,,,,,,,,,,,,,,,,,,,,,,,,,,,,,,[],Sin respuesta,[],,,,,,,1510.1013999992574,587.5613999992574,None,space,1.509234999999535,None,,,568041,2025-12-10_14h35.52.224,spl_exp,,2025.1.1,59.4011179287847,2025-12-10 14h36.03.856279 -0700,
d_3a_seg7.wav,1184.76,7,item_5d,,dim,102,102,0,,,,,,,,,,0.0,1.0,1,None,None,None,space,1.2829846000004181,None,,,,,,,0,102,102,102,406.83601330000056,,,,,,,,,,,,,,,,,,,,,,,,,,,,,,,,,,,,,,,,,,,,,,,,,,,,,,,,,,,[],Sin respuesta,[],,,,,,,1282.8384999993432,98.0784999993432,None,space,1.2829846000004181,None,,,568041,2025-12-10_14h35.52.224,spl_exp,,2025.1.1,59.4011179287847,2025-12-10 14h36.03.856279 -0700,
d_3a_seg8.wav,3313.4,8,item_5d,,dim,103,103,0,,,,,,,,,,0.0,1.0,1,None,None,f,space,0.3316073999994842,None,0.1415895999998611,None,,,,,0,103,103,103,408.20281630000136,,,,,,,,,,,,,,,,,,,,,,,,,,,,,,,,,,,,,,,,,,,,,,,,,,,,,,,,,,,f,Sí,141.5895999998611,,,,,,,,,f,space,0.3316073999994842,None,0.1415895999998611,None,568041,2025-12-10_14h35.52.224,spl_exp,,2025.1.1,59.4011179287847,2025-12-10 14h36.03.856279 -0700,
p_11a_seg1.wav,5434.42,1,item_21p,,plu,104,104,0,,,,,,,,,,None,None,1,1.0,0.0,None,space,6.752975499999593,None,,,,,,,0,104,104,104,412.0527118000009,,,,,,,,,,,,,,,,,,,,,,,,,,,,,,,,,,,,,,,,,,,,,,,,,,,,,,,,,,,[],Sin respuesta,[],,,,,,,6371.560100000352,937.1401000003516,None,space,6.752975499999593,None,,,568041,2025-12-10_14h35.52.224,spl_exp,,2025.1.1,59.4011179287847,2025-12-10 14h36.03.856279 -0700,
p_11a_seg2.wav,1129.34,2,item_21p,,plu,105,105,0,,,,,,,,,,None,None,1,1.0,0.0,None,space,2.462744399999792,None,,,,,,,0,105,105,105,418.46979270000156,,,,,,,,,,,,,,,,,,,,,,,,,,,,,,,,,,,,,,,,,,,,,,,,,,,,,,,,,,,[],Sin respuesta,[],,,,,,,2461.3281000001734,1331.9881000001735,None,space,2.462744399999792,None,,,568041,2025-12-10_14h35.52.224,spl_exp,,2025.1.1,59.4011179287847,2025-12-10 14h36.03.856279 -0700,
p_11a_seg3.wav,975.65,3,item_21p,,plu,106,106,0,,,,,,,,,,None,None,1,1.0,0.0,None,space,1.8455796999987797,None,,,,,,,0,106,106,106,420.95268600000054,,,,,,,,,,,,,,,,,,,,,,,,,,,,,,,,,,,,,,,,,,,,,,,,,,,,,,,,,,,[],Sin respuesta,[],,,,,,,1846.324000000095,870.6740000000951,None,space,1.8455796999987797,None,,,568041,2025-12-10_14h35.52.224,spl_exp,,2025.1.1,59.4011179287847,2025-12-10 14h36.03.856279 -0700,
p_11a_seg4.wav,1496.89,4,item_21p,,plu,107,107,0,,,,,,,,,,None,None,1,1.0,0.0,None,space,2.514702700000271,None,,,,,,,0,107,107,107,422.83564640000077,,,,,,,,,,,,,,,,,,,,,,,,,,,,,,,,,,,,,,,,,,,,,,,,,,,,,,,,,,,[],Sin respuesta,[],,,,,,,2502.2948999994696,1005.4048999994695,None,space,2.514702700000271,None,,,568041,2025-12-10_14h35.52.224,spl_exp,,2025.1.1,59.4011179287847,2025-12-10 14h36.03.856279 -0700,
p_11a_seg5.wav,848.68,5,item_21p,,plu,108,108,0,,,,,,,,,,None,None,1,1.0,0.0,None,space,0.8855196000004071,None,,,,,,,0,108,108,108,425.3522169000007,,,,,,,,,,,,,,,,,,,,,,,,,,,,,,,,,,,,,,,,,,,,,,,,,,,,,,,,,,,[],Sin respuesta,[],,,,,,,878.0879999994795,29.407999999479557,None,space,0.8855196000004071,None,,,568041,2025-12-10_14h35.52.224,spl_exp,,2025.1.1,59.4011179287847,2025-12-10 14h36.03.856279 -0700,
p_11a_seg6.wav,1336.51,6,item_21p,,plu,109,109,0,,,,,,,,,,None,None,1,1.0,0.0,None,space,1.5283001000007062,None,,,,,,,0,109,109,109,426.25243180000143,,,,,,,,,,,,,,,,,,,,,,,,,,,,,,,,,,,,,,,,,,,,,,,,,,,,,,,,,,,[],Sin respuesta,[],,,,,,,1529.1065000001254,192.5965000001254,None,space,1.5283001000007062,None,,,568041,2025-12-10_14h35.52.224,spl_exp,,2025.1.1,59.4011179287847,2025-12-10 14h36.03.856279 -0700,
p_11a_seg7.wav,2058.21,7,item_21p,,plu,110,110,0,,,,,,,,,,None,None,1,1.0,0.0,None,space,2.703223700000308,None,,,,,,,0,110,110,110,427.8192773999999,,,,,,,,,,,,,,,,,,,,,,,,,,,,,,,,,,,,,,,,,,,,,,,,,,,,,,,,,,,[],Sin respuesta,[],,,,,,,2684.032799999841,625.8227999998408,None,space,2.703223700000308,None,,,568041,2025-12-10_14h35.52.224,spl_exp,,2025.1.1,59.4011179287847,2025-12-10 14h36.03.856279 -0700,
p_11a_seg8.wav,2637.41,8,item_21p,,plu,111,111,0,,,,,,,,,,None,None,1,1.0,0.0,f,space,0.5013281000010466,None,0.16562030000022787,None,,,,,0,111,111,111,430.5691130000014,,,,,,,,,,,,,,,,,,,,,,,,,,,,,,,,,,,,,,,,,,,,,,,,,,,,,,,,,,,f,Sí,165.62030000022787,,,,,,,,,f,space,0.5013281000010466,None,0.16562030000022787,None,568041,2025-12-10_14h35.52.224,spl_exp,,2025.1.1,59.4011179287847,2025-12-10 14h36.03.856279 -0700,
d_7a_seg1.wav,4664.56,1,item_13d,,dim,112,112,0,,,,,,,,,,0.0,1.0,1,None,None,None,space,5.652654299999995,None,,,,,,,0,112,112,112,433.9521921000014,,,,,,,,,,,,,,,,,,,,,,,,,,,,,,,,,,,,,,,,,,,,,,,,,,,,,,,,,,,[],Sin respuesta,[],,,,,,,5090.653100000054,426.0931000000537,None,space,5.652654299999995,None,,,568041,2025-12-10_14h35.52.224,spl_exp,,2025.1.1,59.4011179287847,2025-12-10 14h36.03.856279 -0700,
d_7a_seg2.wav,990.23,2,item_13d,,dim,113,113,0,,,,,,,,,,0.0,1.0,1,None,None,None,space,1.1601179000008415,None,,,,,,,0,113,113,113,439.0852674000016,,,,,,,,,,,,,,,,,,,,,,,,,,,,,,,,,,,,,,,,,,,,,,,,,,,,,,,,,,,[],Sin respuesta,[],,,,,,,1164.242099999683,174.01209999968296,None,space,1.1601179000008415,None,,,568041,2025-12-10_14h35.52.224,spl_exp,,2025.1.1,59.4011179287847,2025-12-10 14h36.03.856279 -0700,
d_7a_seg3.wav,748.37,3,item_13d,,dim,114,114,0,,,,,,,,,,0.0,1.0,1,None,None,None,space,1.0300795000002836,None,,,,,,,0,114,114,114,440.2691799000004,,,,,,,,,,,,,,,,,,,,,,,,,,,,,,,,,,,,,,,,,,,,,,,,,,,,,,,,,,,[],Sin respuesta,[],,,,,,,1026.5522000008787,278.18220000087865,None,space,1.0300795000002836,None,,,568041,2025-12-10_14h35.52.224,spl_exp,,2025.1.1,59.4011179287847,2025-12-10 14h36.03.856279 -0700,
d_7a_seg4.wav,848.78,4,item_13d,,dim,115,115,0,,,,,,,,,,0.0,1.0,1,None,None,None,space,0.9107726000002003,None,,,,,,,0,115,115,115,441.3192497,,,,,,,,,,,,,,,,,,,,,,,,,,,,,,,,,,,,,,,,,,,,,,,,,,,,,,,,,,,[],Sin respuesta,[],,,,,,,909.3061000003217,60.526100000321776,None,space,0.9107726000002003,None,,,568041,2025-12-10_14h35.52.224,spl_exp,,2025.1.1,59.4011179287847,2025-12-10 14h36.03.856279 -0700,
d_7a_seg5.wav,757.51,5,item_13d,,dim,116,116,0,,,,,,,,,,0.0,1.0,1,None,None,None,space,1.3649662999996508,None,,,,,,,0,116,116,116,442.2517867000006,,,,,,,,,,,,,,,,,,,,,,,,,,,,,,,,,,,,,,,,,,,,,,,,,,,,,,,,,,,[],Sin respuesta,[],,,,,,,1363.9203000002453,606.4103000002453,None,space,1.3649662999996508,None,,,568041,2025-12-10_14h35.52.224,spl_exp,,2025.1.1,59.4011179287847,2025-12-10 14h36.03.856279 -0700,
d_7a_seg6.wav,944.6,6,item_13d,,dim,117,117,0,,,,,,,,,,0.0,1.0,1,None,None,None,space,1.3993095999994694,None,,,,,,,0,117,117,117,443.6518567000003,,,,,,,,,,,,,,,,,,,,,,,,,,,,,,,,,,,,,,,,,,,,,,,,,,,,,,,,,,,[],Sin respuesta,[],,,,,,,1385.5541000011726,440.9541000011726,None,space,1.3993095999994694,None,,,568041,2025-12-10_14h35.52.224,spl_exp,,2025.1.1,59.4011179287847,2025-12-10 14h36.03.856279 -0700,
d_7a_seg7.wav,1254.9,7,item_13d,,dim,118,118,0,,,,,,,,,,0.0,1.0,1,None,None,None,space,1.5618584000003466,None,,,,,,,0,118,118,118,445.0684979000016,,,,,,,,,,,,,,,,,,,,,,,,,,,,,,,,,,,,,,,,,,,,,,,,,,,,,,,,,,,[],Sin respuesta,[],,,,,,,1554.4069999996282,299.5069999996281,None,space,1.5618584000003466,None,,,568041,2025-12-10_14h35.52.224,spl_exp,,2025.1.1,59.4011179287847,2025-12-10 14h36.03.856279 -0700,
d_7a_seg8.wav,1934.83,8,item_13d,,dim,119,119,0,,,,,,,,,,0.0,1.0,1,None,None,f,space,0.9331696000008378,None,0.005958600000667502,None,,,,,0,119,119,119,446.6515575000012,,,,,,,,,,,,,,,,,,,,,,,,,,,,,,,,,,,,,,,,,,,,,,,,,,,,,,,,,,,f,Sí,5.958600000667502,,,,,,,,,f,space,0.9331696000008378,None,0.005958600000667502,None,568041,2025-12-10_14h35.52.224,spl_exp,,2025.1.1,59.4011179287847,2025-12-10 14h36.03.856279 -0700,
p_16b_seg1.wav,5321.22,1,item_32p,,plu,120,120,0,,,,,,,,,,None,None,1,0.0,1.0,None,space,6.639501100000416,None,,,,,,,0,120,120,120,449.6350516000002,,,,,,,,,,,,,,,,,,,,,,,,,,,,,,,,,,,,,,,,,,,,,,,,,,,,,,,,,,,[],Sin respuesta,[],,,,,,,5610.572999999931,289.35299999993094,None,space,6.639501100000416,None,,,568041,2025-12-10_14h35.52.224,spl_exp,,2025.1.1,59.4011179287847,2025-12-10 14h36.03.856279 -0700,
p_16b_seg2.wav,1005.67,2,item_32p,,plu,121,121,0,,,,,,,,,,None,None,1,0.0,1.0,None,space,1.4681046999994578,None,,,,,,,0,121,121,121,455.3180031000011,,,,,,,,,,,,,,,,,,,,,,,,,,,,,,,,,,,,,,,,,,,,,,,,,,,,,,,,,,,[],Sin respuesta,[],,,,,,,1448.7675999989733,443.09759999897335,None,space,1.4681046999994578,None,,,568041,2025-12-10_14h35.52.224,spl_exp,,2025.1.1,59.4011179287847,2025-12-10 14h36.03.856279 -0700,
p_16b_seg3.wav,937.8,3,item_32p,,plu,122,122,0,,,,,,,,,,None,None,1,0.0,1.0,None,space,1.039994900000238,None,,,,,,,0,122,122,122,456.8015697999999,,,,,,,,,,,,,,,,,,,,,,,,,,,,,,,,,,,,,,,,,,,,,,,,,,,,,,,,,,,[],Sin respuesta,[],,,,,,,1033.4106999998767,95.61069999987672,None,space,1.039994900000238,None,,,568041,2025-12-10_14h35.52.224,spl_exp,,2025.1.1,59.4011179287847,2025-12-10 14h36.03.856279 -0700,
p_16b_seg4.wav,1332.68,4,item_32p,,plu,123,123,0,,,,,,,,,,None,None,1,0.0,1.0,None,space,1.4777525999998034,None,,,,,,,0,123,123,123,457.8679600000014,,,,,,,,,,,,,,,,,,,,,,,,,,,,,,,,,,,,,,,,,,,,,,,,,,,,,,,,,,,[],Sin respuesta,[],,,,,,,1468.2290000000648,135.54900000006478,None,space,1.4777525999998034,None,,,568041,2025-12-10_14h35.52.224,spl_exp,,2025.1.1,59.4011179287847,2025-12-10 14h36.03.856279 -0700,
p_16b_seg5.wav,974.83,5,item_32p,,plu,124,124,0,,,,,,,,,,None,None,1,0.0,1.0,None,space,1.4486310000011144,None,,,,,,,0,124,124,124,459.3679367000004,,,,,,,,,,,,,,,,,,,,,,,,,,,,,,,,,,,,,,,,,,,,,,,,,,,,,,,,,,,[],Sin respuesta,[],,,,,,,1425.7595999988553,450.9295999988552,None,space,1.4486310000011144,None,,,568041,2025-12-10_14h35.52.224,spl_exp,,2025.1.1,59.4011179287847,2025-12-10 14h36.03.856279 -0700,
p_16b_seg6.wav,1215.44,6,item_32p,,plu,125,125,0,,,,,,,,,,None,None,1,0.0,1.0,None,space,1.4003163000015775,None,,,,,,,0,125,125,125,460.8344369000006,,,,,,,,,,,,,,,,,,,,,,,,,,,,,,,,,,,,,,,,,,,,,,,,,,,,,,,,,,,[],Sin respuesta,[],,,,,,,1378.5884999997506,163.14849999975058,None,space,1.4003163000015775,None,,,568041,2025-12-10_14h35.52.224,spl_exp,,2025.1.1,59.4011179287847,2025-12-10 14h36.03.856279 -0700,
p_16b_seg7.wav,1628.84,7,item_32p,,plu,126,126,0,,,,,,,,,,None,None,1,0.0,1.0,None,space,1.8837473000003229,None,,,,,,,0,126,126,126,462.2528277000001,,,,,,,,,,,,,,,,,,,,,,,,,,,,,,,,,,,,,,,,,,,,,,,,,,,,,,,,,,,[],Sin respuesta,[],,,,,,,1863.256900000124,234.4169000001241,None,space,1.8837473000003229,None,,,568041,2025-12-10_14h35.52.224,spl_exp,,2025.1.1,59.4011179287847,2025-12-10 14h36.03.856279 -0700,
p_16b_seg8.wav,2603.65,8,item_32p,,plu,127,127,0,,,,,,,,,,None,None,1,0.0,1.0,f,space,0.33686280000074476,None,0.32345119999990857,None,,,,,0,127,127,127,464.18464219999987,,,,,,,,,,,,,,,,,,,,,,,,,,,,,,,,,,,,,,,,,,,,,,,,,,,,,,,,,,,f,Sí,323.45119999990857,,,,,,,,,f,space,0.33686280000074476,None,0.32345119999990857,None,568041,2025-12-10_14h35.52.224,spl_exp,,2025.1.1,59.4011179287847,2025-12-10 14h36.03.856279 -0700,
d_1a_seg1.wav,6204.31,1,item_1d,,dim,128,128,0,,,,,,,,,,1.0,0.0,1,None,None,None,space,6.7842720999997255,None,,,,,,,0,128,128,128,467.55151170000136,,,,,,,,,,,,,,,,,,,,,,,,,,,,,,,,,,,,,,,,,,,,,,,,,,,,,,,,,,,[],Sin respuesta,[],,,,,,,6363.397299999633,159.0872999996327,None,space,6.7842720999997255,None,,,568041,2025-12-10_14h35.52.224,spl_exp,,2025.1.1,59.4011179287847,2025-12-10 14h36.03.856279 -0700,
d_1a_seg2.wav,922.9,2,item_1d,,dim,129,129,0,,,,,,,,,,1.0,0.0,1,None,None,None,space,1.1196003000004566,None,,,,,,,0,129,129,129,473.98452570000154,,,,,,,,,,,,,,,,,,,,,,,,,,,,,,,,,,,,,,,,,,,,,,,,,,,,,,,,,,,[],Sin respuesta,[],,,,,,,1114.1440999999759,191.2440999999759,None,space,1.1196003000004566,None,,,568041,2025-12-10_14h35.52.224,spl_exp,,2025.1.1,59.4011179287847,2025-12-10 14h36.03.856279 -0700,
d_1a_seg3.wav,702.79,3,item_1d,,dim,130,130,0,,,,,,,,,,1.0,0.0,1,None,None,None,space,0.7456222000000707,None,,,,,,,0,130,130,130,475.1174424000001,,,,,,,,,,,,,,,,,,,,,,,,,,,,,,,,,,,,,,,,,,,,,,,,,,,,,,,,,,,[],Sin respuesta,[],,,,,,,746.7949000001681,44.00490000016816,None,space,0.7456222000000707,None,,,568041,2025-12-10_14h35.52.224,spl_exp,,2025.1.1,59.4011179287847,2025-12-10 14h36.03.856279 -0700,
d_1a_seg4.wav,846.71,4,item_1d,,dim,131,131,0,,,,,,,,,,1.0,0.0,1,None,None,None,space,0.9149238999998488,None,,,,,,,0,131,131,131,475.8842044000012,,,,,,,,,,,,,,,,,,,,,,,,,,,,,,,,,,,,,,,,,,,,,,,,,,,,,,,,,,,[],Sin respuesta,[],,,,,,,913.7958999999682,67.0858999999682,None,space,0.9149238999998488,None,,,568041,2025-12-10_14h35.52.224,spl_exp,,2025.1.1,59.4011179287847,2025-12-10 14h36.03.856279 -0700,
d_1a_seg5.wav,711.22,5,item_1d,,dim,132,132,0,,,,,,,,,,1.0,0.0,1,None,None,None,space,0.9916297999989183,None,,,,,,,0,132,132,132,476.8181605999998,,,,,,,,,,,,,,,,,,,,,,,,,,,,,,,,,,,,,,,,,,,,,,,,,,,,,,,,,,,[],Sin respuesta,[],,,,,,,990.8119999981864,279.59199999818634,None,space,0.9916297999989183,None,,,568041,2025-12-10_14h35.52.224,spl_exp,,2025.1.1,59.4011179287847,2025-12-10 14h36.03.856279 -0700,
d_1a_seg6.wav,694.31,6,item_1d,,dim,133,133,0,,,,,,,,,,1.0,0.0,1,None,None,None,space,0.7862433000009332,None,,,,,,,0,133,133,133,477.8340949000012,,,,,,,,,,,,,,,,,,,,,,,,,,,,,,,,,,,,,,,,,,,,,,,,,,,,,,,,,,,[],Sin respuesta,[],,,,,,,792.8518000007898,98.54180000078986,None,space,0.7862433000009332,None,,,568041,2025-12-10_14h35.52.224,spl_exp,,2025.1.1,59.4011179287847,2025-12-10 14h36.03.856279 -0700,
d_1a_seg7.wav,1054.15,7,item_1d,,dim,134,134,0,,,,,,,,,,1.0,0.0,1,None,None,None,space,1.3018866999991587,None,,,,,,,0,134,134,134,478.65090370000144,,,,,,,,,,,,,,,,,,,,,,,,,,,,,,,,,,,,,,,,,,,,,,,,,,,,,,,,,,,[],Sin respuesta,[],,,,,,,1297.3124999989523,243.16249999895217,None,space,1.3018866999991587,None,,,568041,2025-12-10_14h35.52.224,spl_exp,,2025.1.1,59.4011179287847,2025-12-10 14h36.03.856279 -0700,
d_1a_seg8.wav,2244.81,8,item_1d,,dim,135,135,0,,,,,,,,,,1.0,0.0,1,None,None,j,space,0.5167601000011928,None,1.5438861999991786,None,,,,,0,135,135,135,480.0010538000006,,,,,,,,,,,,,,,,,,,,,,,,,,,,,,,,,,,,,,,,,,,,,,,,,,,,,,,,,,,j,No,1543.8861999991786,,,,,,,,,j,space,0.5167601000011928,None,1.5438861999991786,None,568041,2025-12-10_14h35.52.224,spl_exp,,2025.1.1,59.4011179287847,2025-12-10 14h36.03.856279 -0700,
p_9a_seg1.wav,5434.42,1,item_17p,,plu,136,136,0,,,,,,,,,,None,None,1,1.0,0.0,None,space,6.535251400000561,None,,,,,,,0,136,136,136,484.4172707000016,,,,,,,,,,,,,,,,,,,,,,,,,,,,,,,,,,,,,,,,,,,,,,,,,,,,,,,,,,,[],Sin respuesta,[],,,,,,,5928.579000001264,494.15900000126385,None,space,6.535251400000561,None,,,568041,2025-12-10_14h35.52.224,spl_exp,,2025.1.1,59.4011179287847,2025-12-10 14h36.03.856279 -0700,
p_9a_seg2.wav,1160.23,2,item_17p,,plu,137,137,0,,,,,,,,,,None,None,1,1.0,0.0,None,space,1.386811000000307,None,,,,,,,0,137,137,137,490.41723869999987,,,,,,,,,,,,,,,,,,,,,,,,,,,,,,,,,,,,,,,,,,,,,,,,,,,,,,,,,,,[],Sin respuesta,[],,,,,,,1363.6673000000883,203.43730000008827,None,space,1.386811000000307,None,,,568041,2025-12-10_14h35.52.224,spl_exp,,2025.1.1,59.4011179287847,2025-12-10 14h36.03.856279 -0700,
p_9a_seg3.wav,962.61,3,item_17p,,plu,138,138,0,,,,,,,,,,None,None,1,1.0,0.0,None,space,1.4809855000003154,None,,,,,,,0,138,138,138,491.85094670000035,,,,,,,,,,,,,,,,,,,,,,,,,,,,,,,,,,,,,,,,,,,,,,,,,,,,,,,,,,,[],Sin respuesta,[],,,,,,,1449.9376000003394,487.32760000033943,None,space,1.4809855000003154,None,,,568041,2025-12-10_14h35.52.224,spl_exp,,2025.1.1,59.4011179287847,2025-12-10 14h36.03.856279 -0700,
p_9a_seg4.wav,1332.36,4,item_17p,,plu,139,139,0,,,,,,,,,,None,None,1,1.0,0.0,None,space,1.8488761999997223,None,,,,,,,0,139,139,139,493.3336465000011,,,,,,,,,,,,,,,,,,,,,,,,,,,,,,,,,,,,,,,,,,,,,,,,,,,,,,,,,,,[],Sin respuesta,[],,,,,,,1830.5572999997821,498.1972999997822,None,space,1.8488761999997223,None,,,568041,2025-12-10_14h35.52.224,spl_exp,,2025.1.1,59.4011179287847,2025-12-10 14h36.03.856279 -0700,
p_9a_seg5.wav,873.38,5,item_17p,,plu,140,140,0,,,,,,,,,,None,None,1,1.0,0.0,None,space,0.9611499000002368,None,,,,,,,0,140,140,140,495.2004809000009,,,,,,,,,,,,,,,,,,,,,,,,,,,,,,,,,,,,,,,,,,,,,,,,,,,,,,,,,,,[],Sin respuesta,[],,,,,,,949.1106999994372,75.7306999994372,None,space,0.9611499000002368,None,,,568041,2025-12-10_14h35.52.224,spl_exp,,2025.1.1,59.4011179287847,2025-12-10 14h36.03.856279 -0700,
p_9a_seg6.wav,1376.98,6,item_17p,,plu,141,141,0,,,,,,,,,,None,None,1,1.0,0.0,None,space,1.4713015999986965,None,,,,,,,0,141,141,141,496.16735470000094,,,,,,,,,,,,,,,,,,,,,,,,,,,,,,,,,,,,,,,,,,,,,,,,,,,,,,,,,,,[],Sin respuesta,[],,,,,,,1459.5061999989412,82.52619999894114,None,space,1.4713015999986965,None,,,568041,2025-12-10_14h35.52.224,spl_exp,,2025.1.1,59.4011179287847,2025-12-10 14h36.03.856279 -0700,
p_9a_seg7.wav,1982.61,7,item_17p,,plu,142,142,0,,,,,,,,,,None,None,1,1.0,0.0,None,space,2.5710142999996606,None,,,,,,,0,142,142,142,497.68399409999984,,,,,,,,,,,,,,,,,,,,,,,,,,,,,,,,,,,,,,,,,,,,,,,,,,,,,,,,,,,[],Sin respuesta,[],,,,,,,2552.535999999236,569.9259999992362,None,space,2.5710142999996606,None,,,568041,2025-12-10_14h35.52.224,spl_exp,,2025.1.1,59.4011179287847,2025-12-10 14h36.03.856279 -0700,
p_9a_seg8.wav,1963.47,8,item_17p,,plu,143,143,0,,,,,,,,,,None,None,1,1.0,0.0,j,space,0.5560581999998249,None,0.2693498000007821,None,,,,,0,143,143,143,500.3001423000005,,,,,,,,,,,,,,,,,,,,,,,,,,,,,,,,,,,,,,,,,,,,,,,,,,,,,,,,,,,j,No,269.3498000007821,,,,,,,,,j,space,0.5560581999998249,None,0.2693498000007821,None,568041,2025-12-10_14h35.52.224,spl_exp,,2025.1.1,59.4011179287847,2025-12-10 14h36.03.856279 -0700,
d_15a_seg1.wav,6695.26,1,item_29d,,dim,144,144,0,,,,,,,,,,0.0,1.0,1,None,None,None,space,7.666242500001317,None,,,,,,,0,144,144,144,503.168011400001,,,,,,,,,,,,,,,,,,,,,,,,,,,,,,,,,,,,,,,,,,,,,,,,,,,,,,,,,,,[],Sin respuesta,[],,,,,,,7053.21830000139,357.95830000138994,None,space,7.666242500001317,None,,,568041,2025-12-10_14h35.52.224,spl_exp,,2025.1.1,59.4011179287847,2025-12-10 14h36.03.856279 -0700,
d_15a_seg2.wav,926.42,2,item_29d,,dim,145,145,0,,,,,,,,,,0.0,1.0,1,None,None,None,space,1.4234230000001844,None,,,,,,,0,145,145,145,510.28345249999984,,,,,,,,,,,,,,,,,,,,,,,,,,,,,,,,,,,,,,,,,,,,,,,,,,,,,,,,,,,[],Sin respuesta,[],,,,,,,1417.3721999995905,490.95219999959056,None,space,1.4234230000001844,None,,,568041,2025-12-10_14h35.52.224,spl_exp,,2025.1.1,59.4011179287847,2025-12-10 14h36.03.856279 -0700,
d_15a_seg3.wav,718.78,3,item_29d,,dim,146,146,0,,,,,,,,,,0.0,1.0,1,None,None,None,space,0.8857498999987001,None,,,,,,,0,146,146,146,511.7345596000014,,,,,,,,,,,,,,,,,,,,,,,,,,,,,,,,,,,,,,,,,,,,,,,,,,,,,,,,,,,[],Sin respuesta,[],,,,,,,883.4194999999454,164.63949999994543,None,space,0.8857498999987001,None,,,568041,2025-12-10_14h35.52.224,spl_exp,,2025.1.1,59.4011179287847,2025-12-10 14h36.03.856279 -0700,
d_15a_seg4.wav,830.57,4,item_29d,,dim,147,147,0,,,,,,,,,,0.0,1.0,1,None,None,None,space,1.170132300001569,None,,,,,,,0,147,147,147,512.6330740000012,,,,,,,,,,,,,,,,,,,,,,,,,,,,,,,,,,,,,,,,,,,,,,,,,,,,,,,,,,,[],Sin respuesta,[],,,,,,,1161.238599999706,330.66859999970586,None,space,1.170132300001569,None,,,568041,2025-12-10_14h35.52.224,spl_exp,,2025.1.1,59.4011179287847,2025-12-10 14h36.03.856279 -0700,
d_15a_seg5.wav,766.69,5,item_29d,,dim,148,148,0,,,,,,,,,,0.0,1.0,1,None,None,None,space,1.0130195999990974,None,,,,,,,0,148,148,148,513.8332950000004,,,,,,,,,,,,,,,,,,,,,,,,,,,,,,,,,,,,,,,,,,,,,,,,,,,,,,,,,,,[],Sin respuesta,[],,,,,,,1011.7718000001332,245.08180000013317,None,space,1.0130195999990974,None,,,568041,2025-12-10_14h35.52.224,spl_exp,,2025.1.1,59.4011179287847,2025-12-10 14h36.03.856279 -0700,
d_15a_seg6.wav,713.42,6,item_29d,,dim,149,149,0,,,,,,,,,,0.0,1.0,1,None,None,None,space,0.793481900000188,None,,,,,,,0,149,149,149,514.8667642,,,,,,,,,,,,,,,,,,,,,,,,,,,,,,,,,,,,,,,,,,,,,,,,,,,,,,,,,,,[],Sin respuesta,[],,,,,,,790.4715999993641,77.05159999936416,None,space,0.793481900000188,None,,,568041,2025-12-10_14h35.52.224,spl_exp,,2025.1.1,59.4011179287847,2025-12-10 14h36.03.856279 -0700,
d_15a_seg7.wav,1070.16,7,item_29d,,dim,150,150,0,,,,,,,,,,0.0,1.0,1,None,None,None,space,1.1099040000008245,None,,,,,,,0,150,150,150,515.6999728999999,,,,,,,,,,,,,,,,,,,,,,,,,,,,,,,,,,,,,,,,,,,,,,,,,,,,,,,,,,,[],Sin respuesta,[],,,,,,,1102.2840999994514,32.124099999451346,None,space,1.1099040000008245,None,,,568041,2025-12-10_14h35.52.224,spl_exp,,2025.1.1,59.4011179287847,2025-12-10 14h36.03.856279 -0700,
d_15a_seg8.wav,3371.25,8,item_29d,,dim,151,151,0,,,,,,,,,,0.0,1.0,1,None,None,j,space,1.6202212999996846,None,3.3598323999995046,None,,,,,0,151,151,151,516.8331240000007,,,,,,,,,,,,,,,,,,,,,,,,,,,,,,,,,,,,,,,,,,,,,,,,,,,,,,,,,,,j,No,3359.8323999995046,,,,,,,,,j,space,1.6202212999996846,None,3.3598323999995046,None,568041,2025-12-10_14h35.52.224,spl_exp,,2025.1.1,59.4011179287847,2025-12-10 14h36.03.856279 -0700,
p_2b_seg1.wav,5253.29,1,item_4p,,plu,152,152,0,,,,,,,,,,None,None,1,0.0,1.0,None,space,7.8723165999999765,None,,,,,,,0,152,152,152,522.0002617000009,,,,,,,,,,,,,,,,,,,,,,,,,,,,,,,,,,,,,,,,,,,,,,,,,,,,,,,,,,,[],Sin respuesta,[],,,,,,,6104.512500000055,851.2225000000553,None,space,7.8723165999999765,None,,,568041,2025-12-10_14h35.52.224,spl_exp,,2025.1.1,59.4011179287847,2025-12-10 14h36.03.856279 -0700,
p_2b_seg2.wav,1236.69,2,item_4p,,plu,153,153,0,,,,,,,,,,None,None,1,0.0,1.0,None,space,2.569834300000366,None,,,,,,,0,153,153,153,528.1499803000006,,,,,,,,,,,,,,,,,,,,,,,,,,,,,,,,,,,,,,,,,,,,,,,,,,,,,,,,,,,[],Sin respuesta,[],,,,,,,2556.316100000913,1319.626100000913,None,space,2.569834300000366,None,,,568041,2025-12-10_14h35.52.224,spl_exp,,2025.1.1,59.4011179287847,2025-12-10 14h36.03.856279 -0700,
p_2b_seg3.wav,961.86,3,item_4p,,plu,154,154,0,,,,,,,,,,None,None,1,0.0,1.0,None,space,1.3427630000005593,None,,,,,,,0,154,154,154,530.7497480000002,,,,,,,,,,,,,,,,,,,,,,,,,,,,,,,,,,,,,,,,,,,,,,,,,,,,,,,,,,,[],Sin respuesta,[],,,,,,,1334.986800000479,373.12680000047897,None,space,1.3427630000005593,None,,,568041,2025-12-10_14h35.52.224,spl_exp,,2025.1.1,59.4011179287847,2025-12-10 14h36.03.856279 -0700,
p_2b_seg4.wav,1518.39,4,item_4p,,plu,155,155,0,,,,,,,,,,None,None,1,0.0,1.0,None,space,1.7191146000004665,None,,,,,,,0,155,155,155,532.1168486000006,,,,,,,,,,,,,,,,,,,,,,,,,,,,,,,,,,,,,,,,,,,,,,,,,,,,,,,,,,,[],Sin respuesta,[],,,,,,,1696.310600000288,177.920600000288,None,space,1.7191146000004665,None,,,568041,2025-12-10_14h35.52.224,spl_exp,,2025.1.1,59.4011179287847,2025-12-10 14h36.03.856279 -0700,
p_2b_seg5.wav,1030.59,5,item_4p,,plu,156,156,0,,,,,,,,,,None,None,1,0.0,1.0,None,space,1.415889200001402,None,,,,,,,0,156,156,156,533.8496891000013,,,,,,,,,,,,,,,,,,,,,,,,,,,,,,,,,,,,,,,,,,,,,,,,,,,,,,,,,,,[],Sin respuesta,[],,,,,,,1419.3104000005405,388.7204000005406,None,space,1.415889200001402,None,,,568041,2025-12-10_14h35.52.224,spl_exp,,2025.1.1,59.4011179287847,2025-12-10 14h36.03.856279 -0700,
p_2b_seg6.wav,1490.91,6,item_4p,,plu,157,157,0,,,,,,,,,,None,None,1,0.0,1.0,None,space,1.9666091999988566,None,,,,,,,0,157,157,157,535.2996454000004,,,,,,,,,,,,,,,,,,,,,,,,,,,,,,,,,,,,,,,,,,,,,,,,,,,,,,,,,,,[],Sin respuesta,[],,,,,,,1952.89159999993,461.9815999999298,None,space,1.9666091999988566,None,,,568041,2025-12-10_14h35.52.224,spl_exp,,2025.1.1,59.4011179287847,2025-12-10 14h36.03.856279 -0700,
p_2b_seg7.wav,1848.19,7,item_4p,,plu,158,158,0,,,,,,,,,,None,None,1,0.0,1.0,None,space,2.1237930999996024,None,,,,,,,0,158,158,158,537.2999135000009,,,,,,,,,,,,,,,,,,,,,,,,,,,,,,,,,,,,,,,,,,,,,,,,,,,,,,,,,,,[],Sin respuesta,[],,,,,,,2111.302399998749,263.11239999874897,None,space,2.1237930999996024,None,,,568041,2025-12-10_14h35.52.224,spl_exp,,2025.1.1,59.4011179287847,2025-12-10 14h36.03.856279 -0700,
p_2b_seg8.wav,1947.32,8,item_4p,,plu,159,159,0,,,,,,,,,,None,None,1,0.0,1.0,j,space,0.25225229999887233,None,0.5369336000003386,None,,,,,0,159,159,159,539.4508108000009,,,,,,,,,,,,,,,,,,,,,,,,,,,,,,,,,,,,,,,,,,,,,,,,,,,,,,,,,,,j,No,536.9336000003386,,,,,,,,,j,space,0.25225229999887233,None,0.5369336000003386,None,568041,2025-12-10_14h35.52.224,spl_exp,,2025.1.1,59.4011179287847,2025-12-10 14h36.03.856279 -0700,
d_17a_seg1.wav,5772.11,1,item_33d,,dim,160,160,0,,,,,,,,,,1.0,0.0,1,None,None,None,space,6.837579699998969,None,,,,,,,0,160,160,160,542.2838070000016,,,,,,,,,,,,,,,,,,,,,,,,,,,,,,,,,,,,,,,,,,,,,,,,,,,,,,,,,,,[],Sin respuesta,[],,,,,,,6516.148799999428,744.0387999994282,None,space,6.837579699998969,None,,,568041,2025-12-10_14h35.52.224,spl_exp,,2025.1.1,59.4011179287847,2025-12-10 14h36.03.856279 -0700,
d_17a_seg2.wav,972.54,2,item_33d,,dim,161,161,0,,,,,,,,,,1.0,0.0,1,None,None,None,space,2.3316751000002114,None,,,,,,,0,161,161,161,548.8493541000007,,,,,,,,,,,,,,,,,,,,,,,,,,,,,,,,,,,,,,,,,,,,,,,,,,,,,,,,,,,[],Sin respuesta,[],,,,,,,2327.7326000006724,1355.1926000006724,None,space,2.3316751000002114,None,,,568041,2025-12-10_14h35.52.224,spl_exp,,2025.1.1,59.4011179287847,2025-12-10 14h36.03.856279 -0700,
d_17a_seg3.wav,659.43,3,item_33d,,dim,162,162,0,,,,,,,,,,1.0,0.0,1,None,None,None,space,2.3160050000005867,None,,,,,,,0,162,162,162,551.1988792000011,,,,,,,,,,,,,,,,,,,,,,,,,,,,,,,,,,,,,,,,,,,,,,,,,,,,,,,,,,,[],Sin respuesta,[],,,,,,,2310.7151000003796,1651.2851000003798,None,space,2.3160050000005867,None,,,568041,2025-12-10_14h35.52.224,spl_exp,,2025.1.1,59.4011179287847,2025-12-10 14h36.03.856279 -0700,
d_17a_seg4.wav,1091.16,4,item_33d,,dim,163,163,0,,,,,,,,,,1.0,0.0,1,None,None,None,space,1.608268300000418,None,,,,,,,0,163,163,163,553.5322929000013,,,,,,,,,,,,,,,,,,,,,,,,,,,,,,,,,,,,,,,,,,,,,,,,,,,,,,,,,,,[],Sin respuesta,[],,,,,,,1612.5952000002144,521.4352000002143,None,space,1.608268300000418,None,,,568041,2025-12-10_14h35.52.224,spl_exp,,2025.1.1,59.4011179287847,2025-12-10 14h36.03.856279 -0700,
d_17a_seg5.wav,811.22,5,item_33d,,dim,164,164,0,,,,,,,,,,1.0,0.0,1,None,None,None,space,1.3491744000002655,None,,,,,,,0,164,164,164,555.1657101000001,,,,,,,,,,,,,,,,,,,,,,,,,,,,,,,,,,,,,,,,,,,,,,,,,,,,,,,,,,,[],Sin respuesta,[],,,,,,,1357.1011000003637,545.8811000003636,None,space,1.3491744000002655,None,,,568041,2025-12-10_14h35.52.224,spl_exp,,2025.1.1,59.4011179287847,2025-12-10 14h36.03.856279 -0700,
d_17a_seg6.wav,815.99,6,item_33d,,dim,165,165,0,,,,,,,,,,1.0,0.0,1,None,None,None,space,1.6663343999989593,None,,,,,,,0,165,165,165,556.5657111,,,,,,,,,,,,,,,,,,,,,,,,,,,,,,,,,,,,,,,,,,,,,,,,,,,,,,,,,,,[],Sin respuesta,[],,,,,,,1657.0963000012853,841.1063000012853,None,space,1.6663343999989593,None,,,568041,2025-12-10_14h35.52.224,spl_exp,,2025.1.1,59.4011179287847,2025-12-10 14h36.03.856279 -0700,
d_17a_seg7.wav,1214.49,7,item_33d,,dim,166,166,0,,,,,,,,,,1.0,0.0,1,None,None,None,space,1.4770275999999285,None,,,,,,,0,166,166,166,558.2657652000016,,,,,,,,,,,,,,,,,,,,,,,,,,,,,,,,,,,,,,,,,,,,,,,,,,,,,,,,,,,[],Sin respuesta,[],,,,,,,1466.2448999988555,251.75489999885554,None,space,1.4770275999999285,None,,,568041,2025-12-10_14h35.52.224,spl_exp,,2025.1.1,59.4011179287847,2025-12-10 14h36.03.856279 -0700,
d_17a_seg8.wav,2428.98,8,item_33d,,dim,167,167,0,,,,,,,,,,1.0,0.0,1,None,None,j,space,1.4109358000005159,None,0.9800121999996918,None,,,,,0,167,167,167,559.7821573000001,,,,,,,,,,,,,,,,,,,,,,,,,,,,,,,,,,,,,,,,,,,,,,,,,,,,,,,,,,,j,No,980.0121999996918,,,,,,,,,j,space,1.4109358000005159,None,0.9800121999996918,None,568041,2025-12-10_14h35.52.224,spl_exp,,2025.1.1,59.4011179287847,2025-12-10 14h36.03.856279 -0700,
p_8b_seg1.wav,5208.0,1,item_16p,,plu,168,168,0,,,,,,,,,,None,None,1,0.0,1.0,None,space,7.2539218999991135,None,,,,,,,0,168,168,168,564.6652838000009,,,,,,,,,,,,,,,,,,,,,,,,,,,,,,,,,,,,,,,,,,,,,,,,,,,,,,,,,,,[],Sin respuesta,[],,,,,,,5807.667499999297,599.6674999992974,None,space,7.2539218999991135,None,,,568041,2025-12-10_14h35.52.224,spl_exp,,2025.1.1,59.4011179287847,2025-12-10 14h36.03.856279 -0700,
p_8b_seg2.wav,1117.62,2,item_16p,,plu,169,169,0,,,,,,,,,,None,None,1,0.0,1.0,None,space,1.4389271000000008,None,,,,,,,0,169,169,169,570.4984607000006,,,,,,,,,,,,,,,,,,,,,,,,,,,,,,,,,,,,,,,,,,,,,,,,,,,,,,,,,,,[],Sin respuesta,[],,,,,,,1439.7852000001876,322.1652000001877,None,space,1.4389271000000008,None,,,568041,2025-12-10_14h35.52.224,spl_exp,,2025.1.1,59.4011179287847,2025-12-10 14h36.03.856279 -0700,
p_8b_seg3.wav,896.37,3,item_16p,,plu,170,170,0,,,,,,,,,,None,None,1,0.0,1.0,None,space,1.5600647999999637,None,,,,,,,0,170,170,170,571.9650773000012,,,,,,,,,,,,,,,,,,,,,,,,,,,,,,,,,,,,,,,,,,,,,,,,,,,,,,,,,,,[],Sin respuesta,[],,,,,,,1557.2317999994993,660.8617999994993,None,space,1.5600647999999637,None,,,568041,2025-12-10_14h35.52.224,spl_exp,,2025.1.1,59.4011179287847,2025-12-10 14h36.03.856279 -0700,
p_8b_seg4.wav,1475.03,4,item_16p,,plu,171,171,0,,,,,,,,,,None,None,1,0.0,1.0,None,space,1.7270146000009845,None,,,,,,,0,171,171,171,573.5486958000001,,,,,,,,,,,,,,,,,,,,,,,,,,,,,,,,,,,,,,,,,,,,,,,,,,,,,,,,,,,[],Sin respuesta,[],,,,,,,1722.2928000010143,247.26280000101428,None,space,1.7270146000009845,None,,,568041,2025-12-10_14h35.52.224,spl_exp,,2025.1.1,59.4011179287847,2025-12-10 14h36.03.856279 -0700,
p_8b_seg5.wav,771.54,5,item_16p,,plu,172,172,0,,,,,,,,,,None,None,1,0.0,1.0,None,space,1.1922111000003497,None,,,,,,,0,172,172,172,575.3150893000002,,,,,,,,,,,,,,,,,,,,,,,,,,,,,,,,,,,,,,,,,,,,,,,,,,,,,,,,,,,[],Sin respuesta,[],,,,,,,1195.6917999996222,424.1517999996222,None,space,1.1922111000003497,None,,,568041,2025-12-10_14h35.52.224,spl_exp,,2025.1.1,59.4011179287847,2025-12-10 14h36.03.856279 -0700,
p_8b_seg6.wav,1174.35,6,item_16p,,plu,173,173,0,,,,,,,,,,None,None,1,0.0,1.0,None,space,2.154924000000392,None,,,,,,,0,173,173,173,576.5314546000009,,,,,,,,,,,,,,,,,,,,,,,,,,,,,,,,,,,,,,,,,,,,,,,,,,,,,,,,,,,[],Sin respuesta,[],,,,,,,2159.4308000003366,985.0808000003367,None,space,2.154924000000392,None,,,568041,2025-12-10_14h35.52.224,spl_exp,,2025.1.1,59.4011179287847,2025-12-10 14h36.03.856279 -0700,
p_8b_seg7.wav,1758.57,7,item_16p,,plu,174,174,0,,,,,,,,,,None,None,1,0.0,1.0,None,space,2.874970500000927,None,,,,,,,0,174,174,174,578.7148438000004,,,,,,,,,,,,,,,,,,,,,,,,,,,,,,,,,,,,,,,,,,,,,,,,,,,,,,,,,,,[],Sin respuesta,[],,,,,,,2872.6081999993767,1114.0381999993767,None,space,2.874970500000927,None,,,568041,2025-12-10_14h35.52.224,spl_exp,,2025.1.1,59.4011179287847,2025-12-10 14h36.03.856279 -0700,
p_8b_seg8.wav,2133.13,8,item_16p,,plu,175,175,0,,,,,,,,,,None,None,1,0.0,1.0,j,space,0.5164936000001035,None,3.2144946999997046,None,,,,,0,175,175,175,581.6482102999998,,,,,,,,,,,,,,,,,,,,,,,,,,,,,,,,,,,,,,,,,,,,,,,,,,,,,,,,,,,j,No,3214.4946999997046,,,,,,,,,j,space,0.5164936000001035,None,3.2144946999997046,None,568041,2025-12-10_14h35.52.224,spl_exp,,2025.1.1,59.4011179287847,2025-12-10 14h36.03.856279 -0700,
d_19a_seg1.wav,5963.56,1,item_37d,,dim,176,176,0,,,,,,,,,,0.0,1.0,1,None,None,None,space,6.7199419000007765,None,,,,,,,0,176,176,176,587.5979294000008,,,,,,,,,,,,,,,,,,,,,,,,,,,,,,,,,,,,,,,,,,,,,,,,,,,,,,,,,,,[],Sin respuesta,[],,,,,,,6136.613800001214,173.05380000121386,None,space,6.7199419000007765,None,,,568041,2025-12-10_14h35.52.224,spl_exp,,2025.1.1,59.4011179287847,2025-12-10 14h36.03.856279 -0700,
d_19a_seg2.wav,918.98,2,item_37d,,dim,177,177,0,,,,,,,,,,0.0,1.0,1,None,None,None,space,1.0658629999998084,None,,,,,,,0,177,177,177,593.7813610000012,,,,,,,,,,,,,,,,,,,,,,,,,,,,,,,,,,,,,,,,,,,,,,,,,,,,,,,,,,,[],Sin respuesta,[],,,,,,,1066.4058000002115,147.42580000021144,None,space,1.0658629999998084,None,,,568041,2025-12-10_14h35.52.224,spl_exp,,2025.1.1,59.4011179287847,2025-12-10 14h36.03.856279 -0700,
d_19a_seg3.wav,735.19,3,item_37d,,dim,178,178,0,,,,,,,,,,0.0,1.0,1,None,None,None,space,0.9975536999991164,None,,,,,,,0,178,178,178,594.8644333000011,,,,,,,,,,,,,,,,,,,,,,,,,,,,,,,,,,,,,,,,,,,,,,,,,,,,,,,,,,,[],Sin respuesta,[],,,,,,,996.4583000000857,261.2683000000857,None,space,0.9975536999991164,None,,,568041,2025-12-10_14h35.52.224,spl_exp,,2025.1.1,59.4011179287847,2025-12-10 14h36.03.856279 -0700,
d_19a_seg4.wav,1175.33,4,item_37d,,dim,179,179,0,,,,,,,,,,0.0,1.0,1,None,None,None,space,1.4456511000007595,None,,,,,,,0,179,179,179,595.8814177000004,,,,,,,,,,,,,,,,,,,,,,,,,,,,,,,,,,,,,,,,,,,,,,,,,,,,,,,,,,,[],Sin respuesta,[],,,,,,,1449.5956000009755,274.2656000009756,None,space,1.4456511000007595,None,,,568041,2025-12-10_14h35.52.224,spl_exp,,2025.1.1,59.4011179287847,2025-12-10 14h36.03.856279 -0700,
d_19a_seg5.wav,711.0,5,item_37d,,dim,180,180,0,,,,,,,,,,0.0,1.0,1,None,None,None,space,1.0469408000008116,None,,,,,,,0,180,180,180,597.3477014,,,,,,,,,,,,,,,,,,,,,,,,,,,,,,,,,,,,,,,,,,,,,,,,,,,,,,,,,,,[],Sin respuesta,[],,,,,,,1048.468099999809,337.46809999980906,None,space,1.0469408000008116,None,,,568041,2025-12-10_14h35.52.224,spl_exp,,2025.1.1,59.4011179287847,2025-12-10 14h36.03.856279 -0700,
d_19a_seg6.wav,865.76,6,item_37d,,dim,181,181,0,,,,,,,,,,0.0,1.0,1,None,None,None,space,1.4558536000004096,None,,,,,,,0,181,181,181,598.4147165000013,,,,,,,,,,,,,,,,,,,,,,,,,,,,,,,,,,,,,,,,,,,,,,,,,,,,,,,,,,,[],Sin respuesta,[],,,,,,,1463.607100000445,597.8471000004449,None,space,1.4558536000004096,None,,,568041,2025-12-10_14h35.52.224,spl_exp,,2025.1.1,59.4011179287847,2025-12-10 14h36.03.856279 -0700,
d_19a_seg7.wav,1160.82,7,item_37d,,dim,182,182,0,,,,,,,,,,0.0,1.0,1,None,None,None,space,1.8158031000002666,None,,,,,,,0,182,182,182,599.8979627000008,,,,,,,,,,,,,,,,,,,,,,,,,,,,,,,,,,,,,,,,,,,,,,,,,,,,,,,,,,,[],Sin respuesta,[],,,,,,,1814.846999999645,654.0269999996451,None,space,1.8158031000002666,None,,,568041,2025-12-10_14h35.52.224,spl_exp,,2025.1.1,59.4011179287847,2025-12-10 14h36.03.856279 -0700,
d_19a_seg8.wav,2277.1,8,item_37d,,dim,183,183,0,,,,,,,,,,0.0,1.0,1,None,None,j,space,0.45755069999904663,None,0.3460469000001467,None,,,,,0,183,183,183,601.7644900000014,,,,,,,,,,,,,,,,,,,,,,,,,,,,,,,,,,,,,,,,,,,,,,,,,,,,,,,,,,,j,No,346.0469000001467,,,,,,,,,j,space,0.45755069999904663,None,0.3460469000001467,None,568041,2025-12-10_14h35.52.224,spl_exp,,2025.1.1,59.4011179287847,2025-12-10 14h36.03.856279 -0700,
p_1a_seg1.wav,4823.06,1,item_1p,,plu,184,184,0,,,,,,,,,,None,None,1,1.0,0.0,None,space,6.700684100000217,None,,,,,,,0,184,184,184,604.9312964000001,,,,,,,,,,,,,,,,,,,,,,,,,,,,,,,,,,,,,,,,,,,,,,,,,,,,,,,,,,,[],Sin respuesta,[],,,,,,,6177.685299999212,1354.6252999992112,None,space,6.700684100000217,None,,,568041,2025-12-10_14h35.52.224,spl_exp,,2025.1.1,59.4011179287847,2025-12-10 14h36.03.856279 -0700,
p_1a_seg2.wav,1086.15,2,item_1p,,plu,185,185,0,,,,,,,,,,None,None,1,1.0,0.0,None,space,1.4361088999994536,None,,,,,,,0,185,185,185,611.1811104000008,,,,,,,,,,,,,,,,,,,,,,,,,,,,,,,,,,,,,,,,,,,,,,,,,,,,,,,,,,,[],Sin respuesta,[],,,,,,,1420.5873999999312,334.43739999993113,None,space,1.4361088999994536,None,,,568041,2025-12-10_14h35.52.224,spl_exp,,2025.1.1,59.4011179287847,2025-12-10 14h36.03.856279 -0700,
p_1a_seg3.wav,976.26,3,item_1p,,plu,186,186,0,,,,,,,,,,None,None,1,1.0,0.0,None,space,1.262708800000837,None,,,,,,,0,186,186,186,612.6143865000013,,,,,,,,,,,,,,,,,,,,,,,,,,,,,,,,,,,,,,,,,,,,,,,,,,,,,,,,,,,[],Sin respuesta,[],,,,,,,1262.0547999995324,285.7947999995324,None,space,1.262708800000837,None,,,568041,2025-12-10_14h35.52.224,spl_exp,,2025.1.1,59.4011179287847,2025-12-10 14h36.03.856279 -0700,
p_1a_seg4.wav,1344.76,4,item_1p,,plu,187,187,0,,,,,,,,,,None,None,1,1.0,0.0,None,space,1.5237096999990172,None,,,,,,,0,187,187,187,613.8972482000008,,,,,,,,,,,,,,,,,,,,,,,,,,,,,,,,,,,,,,,,,,,,,,,,,,,,,,,,,,,[],Sin respuesta,[],,,,,,,1529.7289999998611,184.96899999986113,None,space,1.5237096999990172,None,,,568041,2025-12-10_14h35.52.224,spl_exp,,2025.1.1,59.4011179287847,2025-12-10 14h36.03.856279 -0700,
p_1a_seg5.wav,989.18,5,item_1p,,plu,188,188,0,,,,,,,,,,None,None,1,1.0,0.0,None,space,1.4277899000007892,None,,,,,,,0,188,188,188,615.4640225000003,,,,,,,,,,,,,,,,,,,,,,,,,,,,,,,,,,,,,,,,,,,,,,,,,,,,,,,,,,,[],Sin respuesta,[],,,,,,,1421.7223999985436,432.5423999985436,None,space,1.4277899000007892,None,,,568041,2025-12-10_14h35.52.224,spl_exp,,2025.1.1,59.4011179287847,2025-12-10 14h36.03.856279 -0700,
p_1a_seg6.wav,1370.63,6,item_1p,,plu,189,189,0,,,,,,,,,,None,None,1,1.0,0.0,None,space,1.7702159999989817,None,,,,,,,0,189,189,189,616.8976612000006,,,,,,,,,,,,,,,,,,,,,,,,,,,,,,,,,,,,,,,,,,,,,,,,,,,,,,,,,,,[],Sin respuesta,[],,,,,,,1764.0409000014188,393.41090000141867,None,space,1.7702159999989817,None,,,568041,2025-12-10_14h35.52.224,spl_exp,,2025.1.1,59.4011179287847,2025-12-10 14h36.03.856279 -0700,
p_1a_seg7.wav,1913.7,7,item_1p,,plu,190,190,0,,,,,,,,,,None,None,1,1.0,0.0,None,space,2.271326800000679,None,,,,,,,0,190,190,190,618.6975488000007,,,,,,,,,,,,,,,,,,,,,,,,,,,,,,,,,,,,,,,,,,,,,,,,,,,,,,,,,,,[],Sin respuesta,[],,,,,,,2247.6422999989154,333.94229999891536,None,space,2.271326800000679,None,,,568041,2025-12-10_14h35.52.224,spl_exp,,2025.1.1,59.4011179287847,2025-12-10 14h36.03.856279 -0700,
p_1a_seg8.wav,1690.52,8,item_1p,,plu,191,191,0,,,,,,,,,,None,None,1,1.0,0.0,f,space,0.32378779999999097,None,0.3267986999999266,None,,,,,0,191,191,191,620.9975584000003,,,,,,,,,,,,,,,,,,,,,,,,,,,,,,,,,,,,,,,,,,,,,,,,,,,,,,,,,,,f,Sí,326.7986999999266,,,,,,,,,f,space,0.32378779999999097,None,0.3267986999999266,None,568041,2025-12-10_14h35.52.224,spl_exp,,2025.1.1,59.4011179287847,2025-12-10 14h36.03.856279 -0700,
d_10b_seg1.wav,5366.51,1,item_20d,,dim,192,192,0,,,,,,,,,,0.0,1.0,1,None,None,None,space,6.296061400000326,None,,,,,,,0,192,192,192,623.4137655000013,,,,,,,,,,,,,,,,,,,,,,,,,,,,,,,,,,,,,,,,,,,,,,,,,,,,,,,,,,,[],Sin respuesta,[],,,,,,,5907.694300000003,541.1843000000026,None,space,6.296061400000326,None,,,568041,2025-12-10_14h35.52.224,spl_exp,,2025.1.1,59.4011179287847,2025-12-10 14h36.03.856279 -0700,
d_10b_seg2.wav,925.06,2,item_20d,,dim,193,193,0,,,,,,,,,,0.0,1.0,1,None,None,None,space,1.0528930999989825,None,,,,,,,0,193,193,193,629.3636485000006,,,,,,,,,,,,,,,,,,,,,,,,,,,,,,,,,,,,,,,,,,,,,,,,,,,,,,,,,,,[],Sin respuesta,[],,,,,,,1048.450700000103,123.39070000010315,None,space,1.0528930999989825,None,,,568041,2025-12-10_14h35.52.224,spl_exp,,2025.1.1,59.4011179287847,2025-12-10 14h36.03.856279 -0700,
d_10b_seg3.wav,791.56,3,item_20d,,dim,194,194,0,,,,,,,,,,0.0,1.0,1,None,None,None,space,2.7306195000001026,None,,,,,,,0,194,194,194,630.4301366,,,,,,,,,,,,,,,,,,,,,,,,,,,,,,,,,,,,,,,,,,,,,,,,,,,,,,,,,,,[],Sin respuesta,[],,,,,,,2735.694799999692,1944.134799999692,None,space,2.7306195000001026,None,,,568041,2025-12-10_14h35.52.224,spl_exp,,2025.1.1,59.4011179287847,2025-12-10 14h36.03.856279 -0700,
d_10b_seg4.wav,982.27,4,item_20d,,dim,195,195,0,,,,,,,,,,0.0,1.0,1,None,None,None,space,1.3977059999997437,None,,,,,,,0,195,195,195,633.1803716000013,,,,,,,,,,,,,,,,,,,,,,,,,,,,,,,,,,,,,,,,,,,,,,,,,,,,,,,,,,,[],Sin respuesta,[],,,,,,,1394.8175000004994,412.54750000049944,None,space,1.3977059999997437,None,,,568041,2025-12-10_14h35.52.224,spl_exp,,2025.1.1,59.4011179287847,2025-12-10 14h36.03.856279 -0700,
d_10b_seg5.wav,753.4,5,item_20d,,dim,196,196,0,,,,,,,,,,0.0,1.0,1,None,None,None,space,1.1568465000000288,None,,,,,,,0,196,196,196,634.5968709000008,,,,,,,,,,,,,,,,,,,,,,,,,,,,,,,,,,,,,,,,,,,,,,,,,,,,,,,,,,,[],Sin respuesta,[],,,,,,,1165.5571999999665,412.15719999996656,None,space,1.1568465000000288,None,,,568041,2025-12-10_14h35.52.224,spl_exp,,2025.1.1,59.4011179287847,2025-12-10 14h36.03.856279 -0700,
d_10b_seg6.wav,791.54,6,item_20d,,dim,197,197,0,,,,,,,,,,0.0,1.0,1,None,None,None,space,1.0274064999994152,None,,,,,,,0,197,197,197,635.7803858000007,,,,,,,,,,,,,,,,,,,,,,,,,,,,,,,,,,,,,,,,,,,,,,,,,,,,,,,,,,,[],Sin respuesta,[],,,,,,,1033.9253000001918,242.38530000019182,None,space,1.0274064999994152,None,,,568041,2025-12-10_14h35.52.224,spl_exp,,2025.1.1,59.4011179287847,2025-12-10 14h36.03.856279 -0700,
d_10b_seg7.wav,1401.88,7,item_20d,,dim,198,198,0,,,,,,,,,,0.0,1.0,1,None,None,None,space,1.7781601000006049,None,,,,,,,0,198,198,198,636.8301377000007,,,,,,,,,,,,,,,,,,,,,,,,,,,,,,,,,,,,,,,,,,,,,,,,,,,,,,,,,,,[],Sin respuesta,[],,,,,,,1777.3672999992414,375.48729999924126,None,space,1.7781601000006049,None,,,568041,2025-12-10_14h35.52.224,spl_exp,,2025.1.1,59.4011179287847,2025-12-10 14h36.03.856279 -0700,
d_10b_seg8.wav,2557.51,8,item_20d,,dim,199,199,0,,,,,,,,,,0.0,1.0,1,None,None,f,space,5.025228500000594,None,0.63560839999991,None,,,,,0,199,199,199,638.6640242000012,,,,,,,,,,,,,,,,,,,,,,,,,,,,,,,,,,,,,,,,,,,,,,,,,,,,,,,,,,,f,Sí,635.60839999991,,,,,,,,,f,space,5.025228500000594,None,0.63560839999991,None,568041,2025-12-10_14h35.52.224,spl_exp,,2025.1.1,59.4011179287847,2025-12-10 14h36.03.856279 -0700,
p_15a_seg1.wav,5525.01,1,item_29p,,plu,200,200,0,,,,,,,,,,None,None,1,1.0,0.0,None,space,11.523047200000292,None,,,,,,,0,200,200,200,646.9805248000011,,,,,,,,,,,,,,,,,,,,,,,,,,,,,,,,,,,,,,,,,,,,,,,,,,,,,,,,,,,[],Sin respuesta,[],,,,,,,6435.706599999321,910.6965999993208,None,space,11.523047200000292,None,,,568041,2025-12-10_14h35.52.224,spl_exp,,2025.1.1,59.4011179287847,2025-12-10 14h36.03.856279 -0700,
p_15a_seg2.wav,1112.79,2,item_29p,,plu,201,201,0,,,,,,,,,,None,None,1,1.0,0.0,None,space,1.5898698999990302,None,,,,,,,0,201,201,201,653.4800794000002,,,,,,,,,,,,,,,,,,,,,,,,,,,,,,,,,,,,,,,,,,,,,,,,,,,,,,,,,,,[],Sin respuesta,[],,,,,,,1580.10639999884,467.3163999988401,None,space,1.5898698999990302,None,,,568041,2025-12-10_14h35.52.224,spl_exp,,2025.1.1,59.4011179287847,2025-12-10 14h36.03.856279 -0700,
p_15a_seg3.wav,988.41,3,item_29p,,plu,202,202,0,,,,,,,,,,None,None,1,1.0,0.0,None,space,1.137290500000745,None,,,,,,,0,202,202,202,655.0803066000008,,,,,,,,,,,,,,,,,,,,,,,,,,,,,,,,,,,,,,,,,,,,,,,,,,,,,,,,,,,[],Sin respuesta,[],,,,,,,1126.9161999989592,138.50619999895923,None,space,1.137290500000745,None,,,568041,2025-12-10_14h35.52.224,spl_exp,,2025.1.1,59.4011179287847,2025-12-10 14h36.03.856279 -0700,
p_15a_seg4.wav,1426.98,4,item_29p,,plu,203,203,0,,,,,,,,,,None,None,1,1.0,0.0,None,space,1.7146556999996392,None,,,,,,,0,203,203,203,656.2295805000012,,,,,,,,,,,,,,,,,,,,,,,,,,,,,,,,,,,,,,,,,,,,,,,,,,,,,,,,,,,[],Sin respuesta,[],,,,,,,1713.5899999993853,286.6099999993853,None,space,1.7146556999996392,None,,,568041,2025-12-10_14h35.52.224,spl_exp,,2025.1.1,59.4011179287847,2025-12-10 14h36.03.856279 -0700,
p_15a_seg5.wav,896.78,5,item_29p,,plu,204,204,0,,,,,,,,,,None,None,1,1.0,0.0,None,space,0.9407368999982282,None,,,,,,,0,204,204,204,657.9632834000004,,,,,,,,,,,,,,,,,,,,,,,,,,,,,,,,,,,,,,,,,,,,,,,,,,,,,,,,,,,[],Sin respuesta,[],,,,,,,931.9801000001462,35.20010000014622,None,space,0.9407368999982282,None,,,568041,2025-12-10_14h35.52.224,spl_exp,,2025.1.1,59.4011179287847,2025-12-10 14h36.03.856279 -0700,
p_15a_seg6.wav,1322.24,6,item_29p,,plu,205,205,0,,,,,,,,,,None,None,1,1.0,0.0,None,space,1.4722441999983857,None,,,,,,,0,205,205,205,658.9148582000016,,,,,,,,,,,,,,,,,,,,,,,,,,,,,,,,,,,,,,,,,,,,,,,,,,,,,,,,,,,[],Sin respuesta,[],,,,,,,1473.8047999999253,151.5647999999253,None,space,1.4722441999983857,None,,,568041,2025-12-10_14h35.52.224,spl_exp,,2025.1.1,59.4011179287847,2025-12-10 14h36.03.856279 -0700,
p_15a_seg7.wav,2048.82,7,item_29p,,plu,206,206,0,,,,,,,,,,None,None,1,1.0,0.0,None,space,2.1576196999994863,None,,,,,,,0,206,206,206,660.4131979000013,,,,,,,,,,,,,,,,,,,,,,,,,,,,,,,,,,,,,,,,,,,,,,,,,,,,,,,,,,,[],Sin respuesta,[],,,,,,,2143.238599999677,94.41859999967664,None,space,2.1576196999994863,None,,,568041,2025-12-10_14h35.52.224,spl_exp,,2025.1.1,59.4011179287847,2025-12-10 14h36.03.856279 -0700,
p_15a_seg8.wav,2356.49,8,item_29p,,plu,207,207,0,,,,,,,,,,None,None,1,1.0,0.0,f,space,0.2525750999993761,None,0.8544144000006781,None,,,,,0,207,207,207,662.6462836999999,,,,,,,,,,,,,,,,,,,,,,,,,,,,,,,,,,,,,,,,,,,,,,,,,,,,,,,,,,,f,Sí,854.4144000006781,,,,,,,,,f,space,0.2525750999993761,None,0.8544144000006781,None,568041,2025-12-10_14h35.52.224,spl_exp,,2025.1.1,59.4011179287847,2025-12-10 14h36.03.856279 -0700,
d_6b_seg1.wav,5496.67,1,item_12d,,dim,208,208,0,,,,,,,,,,0.0,1.0,1,None,None,None,space,7.609536800000569,None,,,,,,,0,208,208,208,666.1463425000002,,,,,,,,,,,,,,,,,,,,,,,,,,,,,,,,,,,,,,,,,,,,,,,,,,,,,,,,,,,[],Sin respuesta,[],,,,,,,7336.639999999534,1839.9699999995337,None,space,7.609536800000569,None,,,568041,2025-12-10_14h35.52.224,spl_exp,,2025.1.1,59.4011179287847,2025-12-10 14h36.03.856279 -0700,
d_6b_seg2.wav,1499.02,2,item_12d,,dim,209,209,0,,,,,,,,,,0.0,1.0,1,None,None,None,space,2.0069529000011244,None,,,,,,,0,209,209,209,673.5303187000009,,,,,,,,,,,,,,,,,,,,,,,,,,,,,,,,,,,,,,,,,,,,,,,,,,,,,,,,,,,[],Sin respuesta,[],,,,,,,1981.3326999992569,482.3126999992569,None,space,2.0069529000011244,None,,,568041,2025-12-10_14h35.52.224,spl_exp,,2025.1.1,59.4011179287847,2025-12-10 14h36.03.856279 -0700,
d_6b_seg3.wav,1087.78,3,item_12d,,dim,210,210,0,,,,,,,,,,0.0,1.0,1,None,None,None,space,1.3522331999993185,None,,,,,,,0,210,210,210,675.5464943000006,,,,,,,,,,,,,,,,,,,,,,,,,,,,,,,,,,,,,,,,,,,,,,,,,,,,,,,,,,,[],Sin respuesta,[],,,,,,,1351.2590999998793,263.4790999998793,None,space,1.3522331999993185,None,,,568041,2025-12-10_14h35.52.224,spl_exp,,2025.1.1,59.4011179287847,2025-12-10 14h36.03.856279 -0700,
d_6b_seg4.wav,1240.34,4,item_12d,,dim,211,211,0,,,,,,,,,,0.0,1.0,1,None,None,None,space,1.3266825999999128,None,,,,,,,0,211,211,211,676.9129790000006,,,,,,,,,,,,,,,,,,,,,,,,,,,,,,,,,,,,,,,,,,,,,,,,,,,,,,,,,,,[],Sin respuesta,[],,,,,,,1322.3928000006708,82.05280000067091,None,space,1.3266825999999128,None,,,568041,2025-12-10_14h35.52.224,spl_exp,,2025.1.1,59.4011179287847,2025-12-10 14h36.03.856279 -0700,
d_6b_seg5.wav,1174.01,5,item_12d,,dim,212,212,0,,,,,,,,,,0.0,1.0,1,None,None,None,space,1.3697228000000905,None,,,,,,,0,212,212,212,678.279134800001,,,,,,,,,,,,,,,,,,,,,,,,,,,,,,,,,,,,,,,,,,,,,,,,,,,,,,,,,,,[],Sin respuesta,[],,,,,,,1368.6255000011442,194.61550000114426,None,space,1.3697228000000905,None,,,568041,2025-12-10_14h35.52.224,spl_exp,,2025.1.1,59.4011179287847,2025-12-10 14h36.03.856279 -0700,
d_6b_seg6.wav,1207.19,6,item_12d,,dim,213,213,0,,,,,,,,,,0.0,1.0,1,None,None,None,space,1.284282800001165,None,,,,,,,0,213,213,213,679.6627296000006,,,,,,,,,,,,,,,,,,,,,,,,,,,,,,,,,,,,,,,,,,,,,,,,,,,,,,,,,,,[],Sin respuesta,[],,,,,,,1274.3914000002405,67.20140000024048,None,space,1.284282800001165,None,,,568041,2025-12-10_14h35.52.224,spl_exp,,2025.1.1,59.4011179287847,2025-12-10 14h36.03.856279 -0700,
